,timestamp,acc_x,acc_y,acc_z
0,1663314879472,2.6054847,-9.968499,3.1989048
1,1663314879473,2.6581268,-9.937392,3.2611182
2,1663314879473,2.670091,-9.927821,3.2611182
3,1663314879473,2.7275188,-9.937392,3.2419755
4,1663314879473,2.7299116,-9.932607,3.155834
5,1663314879473,2.6772695,-9.9015,3.0146575
6,1663314879473,2.6629126,-9.889536,2.8351958
7,1663314879473,2.6413772,-9.875179,2.612364
8,1663314879473,2.5576284,-9.822537,2.385046
9,1663314879479,2.5313072,-9.829716,2.114358
10,1663314879479,2.495415,-9.844072,1.8391833
11,1663314879483,2.4499512,-9.817751,1.5373886
12,1663314879483,2.3518455,-9.760324,1.2646067
13,1663314879488,2.2271197,-9.700204,0.98674023
14,1663314879488,2.1768703,-9.693026,0.68524456
15,1663314879493,2.1218355,-9.6834545,0.42891344
16,1663314879493,1.9950159,-9.637991,0.21834506
17,1663314879498,1.8825532,-9.61167,-0.026021946
18,1663314879498,1.8227327,-9.597313,-0.2844468
19,1663314879503,1.7533408,-9.54467,-0.50458646
20,1663314879503,1.6262221,-9.465707,-0.6652047
21,1663314879509,1.5257236,-9.415458,-0.8255238
22,1663314879509,1.532902,-9.413065,-0.95712906
23,1663314879512,1.4539388,-9.365209,-1.0432707
24,1663314879512,1.3893327,-9.348459,-1.1368898
25,1663314879517,1.3390833,-9.331709,-1.1512468
26,1663314879518,1.2314063,-9.291031,-1.1440684
27,1663314879523,1.1883355,-9.2742815,-1.1632109
28,1663314879523,1.1497513,-9.300603,-1.1536397
29,1663314879528,1.1497513,-9.355638,-1.1033903
30,1663314879528,1.1234303,-9.360423,-1.0552348
31,1663314879532,1.0875379,-9.389137,-0.9403793
32,1663314879533,1.14018,-9.45135,-0.863809
33,1663314879535,1.14018,-9.496814,-0.74416786
34,1663314879540,1.0947163,-9.487243,-0.5838487
35,1663314879540,1.1042876,-9.537492,-0.40648076
36,1663314879545,1.1234303,-9.551849,-0.26291138
37,1663314879545,1.1306087,-9.582955,-0.052342996
38,1663314879550,1.1306087,-9.585348,0.098703936
39,1663314879550,1.1617154,-9.602098,0.27337998
40,1663314879556,1.2122638,-9.652348,0.46241298
41,1663314879556,1.2266207,-9.664311,0.6445666
42,1663314879560,1.2553346,-9.65474,0.8527422
43,1663314879560,1.2649059,-9.67149,1.0465608
44,1663314879565,1.3534403,-9.700204,1.1976078
45,1663314879565,1.4204394,-9.726525,1.3914263
46,1663314879569,1.4898312,-9.743574,1.5397813
47,1663314879569,1.5233307,-9.767502,1.6905292
48,1663314879575,1.5616158,-9.762716,1.8367904
49,1663314879575,1.6788642,-9.805787,1.9301106
50,1663314879579,1.7964116,-9.84168,2.033002
51,1663314879579,1.8681962,-9.844072,2.1191435
52,1663314879584,1.9208384,-9.865608,2.1646073
53,1663314879584,1.9375881,-9.875179,2.2124636
54,1663314879589,2.0021944,-9.9038925,2.2579272
55,1663314879589,2.0141585,-9.894321,2.2411776
56,1663314879594,2.0859432,-9.944571,2.1981068
57,1663314879594,2.140978,-9.973285,2.2172494
58,1663314879599,2.1385853,-9.994821,2.1765714
59,1663314879599,2.1003,-9.997213,2.1287148
60,1663314879604,2.0835502,-10.033105,2.05693
61,1663314879604,2.1074786,-10.092926,1.9588244
62,1663314879609,2.1385853,-10.135997,1.87029
63,1663314879609,2.0955145,-10.114461,1.7195421
64,1663314879614,2.018944,-10.107283,1.6019948
65,1663314879615,1.9806589,-10.090533,1.4273187
66,1663314879619,1.8921245,-10.054641,1.2765709
67,1663314879619,1.8705891,-10.059426,1.0896316
68,1663314879624,1.8538394,-10.064212,0.92931247
69,1663314879624,1.8083757,-10.057034,0.7905288
70,1663314879629,1.7461623,-10.037891,0.64217377
71,1663314879629,1.681257,-10.01157,0.53659046
72,1663314879635,1.5975082,-9.9756775,0.41934216
73,1663314879635,1.518545,-9.961321,0.30209386
74,1663314879639,1.4706886,-9.925428,0.21595225
75,1663314879639,1.410868,-9.894321,0.06999006
76,1663314879644,1.3677973,-9.846465,-0.0020937198
77,1663314879644,1.343869,-9.784252,-0.10977074
78,1663314879649,1.2792628,-9.789038,-0.17437695
79,1663314879649,1.27687,-9.769895,-0.200698
80,1663314879654,1.2122638,-9.738789,-0.22462623
81,1663314879654,1.2553346,-9.760324,-0.24616162
82,1663314879658,1.2553346,-9.762716,-0.24137598
83,1663314879658,1.2433704,-9.769895,-0.21505493
84,1663314879663,1.2290136,-9.757931,-0.18634106
85,1663314879664,1.2409776,-9.765109,-0.1265205
86,1663314879668,1.27687,-9.779466,-0.054735817
87,1663314879668,1.3247265,-9.812965,0.021834506
88,1663314879673,1.3773686,-9.805787,0.14416756
89,1663314879673,1.4036896,-9.844072,0.27098715
90,1663314879678,1.4324034,-9.860822,0.37387854
91,1663314879678,1.4635102,-9.856036,0.49830532
92,1663314879683,1.4587245,-9.889536,0.61824554
93,1663314879683,1.4826528,-9.894321,0.7187441
94,1663314879688,1.5161523,-9.899107,0.81924266
95,1663314879688,1.5305092,-9.896714,0.92213404
96,1663314879693,1.5687944,-9.882358,0.99631155
97,1663314879693,1.5999011,-9.9015,1.0657034
98,1663314879698,1.6238292,-9.88475,1.0992029
99,1663314879698,1.6645073,-9.858429,1.1494522
100,1663314879703,1.6740786,-9.8727865,1.1736795
101,1663314879703,1.695614,-9.853643,1.1617154
102,1663314879708,1.7171494,-9.851251,1.154537
103,1663314879709,1.7362919,-9.836894,1.1303096
104,1663314879713,1.7362919,-9.846465,1.1039885
105,1663314879713,1.7123637,-9.8321085,1.0800604
106,1663314879718,1.7291135,-9.853643,0.98913306
107,1663314879718,1.7195421,-9.820144,0.96759766
108,1663314879724,1.7338991,-9.836894,0.9269197
109,1663314879724,1.7099708,-9.817751,0.86949193
110,1663314879729,1.7051853,-9.82493,0.7929216
111,1663314879729,1.7123637,-9.82493,0.7426723
112,1663314879733,1.6740786,-9.80818,0.68524456
113,1663314879733,1.6884354,-9.805787,0.6230312
114,1663314879738,1.6525432,-9.810573,0.56530434
115,1663314879738,1.6142579,-9.784252,0.503091
116,1663314879742,1.6262221,-9.796216,0.43609193
117,1663314879742,1.6238292,-9.796216,0.3906283
118,1663314879748,1.5879369,-9.779466,0.34037903
119,1663314879748,1.57358,-9.755538,0.27337998
120,1663314879752,1.5544374,-9.743574,0.24466611
121,1663314879752,1.5616158,-9.750752,0.22073789
122,1663314879758,1.5257236,-9.757931,0.21355942
123,1663314879758,1.5209379,-9.736395,0.2111666
124,1663314879762,1.5376877,-9.726525,0.22073789
125,1663314879762,1.5281163,-9.753145,0.21595225
126,1663314879769,1.5137594,-9.734002,0.24466611
127,1663314879769,1.5352948,-9.728918,0.27098715
128,1663314879773,1.5233307,-9.738789,0.3068795
129,1663314879773,1.5209379,-9.74836,0.33080772
130,1663314879778,1.5137594,-9.755538,0.36191443
131,1663314879778,1.5257236,-9.745967,0.37387854
132,1663314879783,1.5233307,-9.777073,0.381057
133,1663314879783,1.5161523,-9.769895,0.3906283
134,1663314879787,1.5352948,-9.781859,0.43609193
135,1663314879788,1.532902,-9.80818,0.43848476
136,1663314879792,1.547259,-9.789038,0.4671986
137,1663314879792,1.57358,-9.80818,0.4743771
138,1663314879798,1.5687944,-9.829716,0.5054838
139,1663314879798,1.5927225,-9.801002,0.51505506
140,1663314879802,1.6046867,-9.80818,0.52941203
141,1663314879802,1.5879369,-9.784252,0.51266223
142,1663314879807,1.6046867,-9.767502,0.53180486
143,1663314879807,1.5783657,-9.769895,0.49830532
144,1663314879812,1.547259,-9.734002,0.503091
145,1663314879812,1.5137594,-9.685847,0.48873404
146,1663314879817,1.4778671,-9.67149,0.48394838
147,1663314879817,1.4347963,-9.626026,0.49830532
148,1663314879821,1.4132608,-9.609277,0.4648058
149,1663314879822,1.3749757,-9.585348,0.4552345
150,1663314879827,1.3342978,-9.582955,0.41934216
151,1663314879827,1.2792628,-9.582955,0.42891344
152,1663314879831,1.2433704,-9.554242,0.40259242
153,1663314879831,1.195514,-9.532706,0.3906283
154,1663314879837,1.1760724,-9.542277,0.38584265
155,1663314879837,1.1114662,-9.535099,0.3930211
156,1663314879841,1.0372887,-9.5303135,0.35473597
157,1663314879841,1.018146,-9.532706,0.33320054
158,1663314879846,0.96550393,-9.525528,0.30927232
159,1663314879846,0.9176475,-9.515957,0.31166515
160,1663314879852,0.8817552,-9.515957,0.29012975
161,1663314879852,0.8554341,-9.525528,0.24705894
162,1663314879856,0.82672024,-9.547063,0.24705894
163,1663314879856,0.8362915,-9.566206,0.24945176
164,1663314879861,0.84107715,-9.587741,0.23988047
165,1663314879861,0.84347,-9.618848,0.2542374
166,1663314879867,0.86261255,-9.640384,0.26859435
167,1663314879867,0.84825563,-9.666704,0.28055847
168,1663314879871,0.8602197,-9.716953,0.29970104
169,1663314879871,0.89371926,-9.784252,0.35234314
170,1663314879877,0.8865408,-9.805787,0.38344982
171,1663314879877,0.9128618,-9.834501,0.4001996
172,1663314879881,0.9343972,-9.853643,0.40977088
173,1663314879881,0.8961121,-9.889536,0.42891344
174,1663314879886,0.86979103,-9.9015,0.4528417
175,1663314879887,0.85064846,-9.91825,0.43609193
176,1663314879891,0.78364944,-9.930214,0.421735
177,1663314879891,0.7716853,-9.927821,0.44805604
178,1663314879896,0.71665037,-9.906285,0.42652065
179,1663314879896,0.67836523,-9.889536,0.4121637
180,1663314879901,0.654437,-9.9015,0.36430725
181,1663314879901,0.64965135,-9.9038925,0.33320054
182,1663314879907,0.6134599,-9.899107,0.28773692
183,1663314879907,0.6158527,-9.9038925,0.29970104
184,1663314879911,0.6305088,-9.868001,0.27816564
185,1663314879911,0.6257231,-9.853643,0.3188436
186,1663314879917,0.6664011,-9.877572,0.232702
187,1663314879917,0.62811595,-9.891929,0.14656039
188,1663314879922,0.599103,-9.8727865,0.13220344
189,1663314879922,0.5273183,-9.810573,0.12023934
190,1663314879926,0.48185465,-9.798609,0.10827523
191,1663314879927,0.48903313,-9.793823,0.11545369
192,1663314879931,0.5727819,-9.801002,0.15134603
193,1663314879931,0.56560344,-9.769895,0.1680958
194,1663314879936,0.5392824,-9.716953,0.1369891
195,1663314879936,0.6158527,-9.779466,0.07956135
196,1663314879941,0.6448657,-9.834501,-0.03798606
197,1663314879941,0.6086743,-9.765109,-0.06909275
198,1663314879945,0.5560322,-9.736395,-0.07627122
199,1663314879945,0.46271208,-9.652348,-0.030807592
200,1663314881463,0.16360925,-9.212068,0.081954174
201,1663314881463,0.18514465,-9.171391,0.10109676
202,1663314881463,0.22103699,-9.132806,0.13220344
203,1663314881463,0.2425724,-9.099306,0.1369891
204,1663314881463,0.23539393,-9.070593,0.15134603
205,1663314881463,0.22821546,-9.092128,0.16091733
206,1663314881468,0.24975087,-9.11127,0.19202402
207,1663314881468,0.25692934,-9.139984,0.24945176
208,1663314881472,0.24975087,-9.116056,0.2111666
209,1663314881472,0.20428723,-9.116056,0.16570297
210,1663314881477,0.22342981,-9.142377,0.13938192
211,1663314881477,0.23539393,-9.166306,0.12263216
212,1663314881483,0.26171497,-9.231211,0.13938192
213,1663314881483,0.24735804,-9.26471,0.14177474
214,1663314881487,0.23060828,-9.288638,0.19202402
215,1663314881487,0.17078772,-9.331709,0.21595225
216,1663314881493,0.17557336,-9.39153,0.27098715
217,1663314881493,0.14925231,-9.434601,0.30209386
218,1663314881497,0.15643078,-9.494421,0.3164508
219,1663314881497,0.13250256,-9.549456,0.26141587
220,1663314881502,0.13010973,-9.585348,0.27337998
221,1663314881502,0.115752794,-9.6427765,0.2638087
222,1663314881507,0.070289165,-9.6834545,0.2638087
223,1663314881507,0.055633128,-9.726525,0.23988047
224,1663314881512,0.04366901,-9.817751,0.22791636
225,1663314881512,0.04127619,-9.906285,0.18005991
226,1663314881517,0.0317049,-9.982856,0.12981063
227,1663314881517,-0.008973085,-10.047462,0.08673982
228,1663314881522,-0.032901313,-10.078569,0.08673982
229,1663314881522,-0.08554341,-10.179068,0.10109676
230,1663314881527,-0.111864455,-10.205389,0.096311115
231,1663314881527,-0.1692922,-10.202995,0.036490545
232,1663314881531,-0.17647067,-10.224531,-0.030807592
233,1663314881531,-0.13100705,-10.217353,-0.07866404
234,1663314881535,-0.08793623,-10.243673,-0.10737792
235,1663314881539,-0.07836494,-10.255638,-0.13369897
236,1663314881539,-0.08793623,-10.258031,-0.10977074
237,1663314881544,-0.068793654,-10.226924,-0.095413804
238,1663314881544,-0.030508488,-10.21496,-0.07148558
239,1663314881548,-0.0041874396,-10.210175,-0.08105687
240,1663314881549,0.014955142,-10.162318,-0.08823533
241,1663314881554,0.08703893,-10.13839,-0.097806625
242,1663314881554,0.12771691,-10.083355,-0.12412767
243,1663314881559,0.180359,-10.004392,-0.16241284
244,1663314881559,0.20668006,-9.961321,-0.13609178
245,1663314881564,0.19950159,-9.913465,-0.13130614
246,1663314881564,0.24017957,-9.889536,-0.12173485
247,1663314881569,0.23778675,-9.896714,-0.13130614
248,1663314881569,0.2641078,-9.915857,-0.07627122
249,1663314881574,0.2330011,-9.939785,-0.023629123
250,1663314881574,0.19950159,-10.023534,0.036490545
251,1663314881579,0.18753748,-10.092926,0.084346995
252,1663314881579,0.17318054,-10.164711,0.16331014
253,1663314881584,0.15164514,-10.236495,0.20638095
254,1663314881585,0.0317049,-10.344471,0.28773692
255,1663314881589,-0.028115666,-10.394721,0.34516466
256,1663314881589,-0.025722843,-10.459327,0.3930211
257,1663314881594,0.010169496,-10.531112,0.3786642
258,1663314881594,0.055633128,-10.605289,0.34277186
259,1663314881598,0.12771691,-10.669895,0.3499503
260,1663314881598,0.21385853,-10.722537,0.34277186
261,1663314881604,0.2832504,-10.75843,0.29970104
262,1663314881604,0.33589247,-10.787144,0.2853441
263,1663314881609,0.39332023,-10.842178,0.24227329
264,1663314881609,0.47946185,-10.871191,0.2542374
265,1663314881614,0.558425,-10.911869,0.27816564
266,1663314881614,0.7046863,-10.942976,0.3044867
267,1663314881618,0.72382885,-10.885549,0.37387854
268,1663314881619,0.71665037,-10.815858,0.36191443
269,1663314881624,0.73340017,-10.727323,0.4456632
270,1663314881624,0.80757767,-10.703395,0.5174479
271,1663314881629,0.7573284,-10.701002,0.6972087
272,1663314881629,0.71665037,-10.691431,0.8790632
273,1663314881633,0.6879365,-10.672288,1.1015958
274,1663314881634,0.6975078,-10.626824,1.2311072
275,1663314881638,0.66400826,-10.576575,1.3627125
276,1663314881638,0.66400826,-10.519148,1.4033905
277,1663314881644,0.67836523,-10.452148,1.4081762
278,1663314881644,0.73579293,-10.404292,1.410569
279,1663314881648,0.78843504,-10.346864,1.4177474
280,1663314881648,0.8362915,-10.313365,1.4440684
281,1663314881653,0.86979103,-10.27478,1.4703895
282,1663314881653,0.9056834,-10.219746,1.5206388
283,1663314881658,0.9391829,-10.1599245,1.5493526
284,1663314881658,0.9200403,-10.10489,1.5493526
285,1663314881663,0.94636136,-10.001999,1.5278172
286,1663314881663,0.9200403,-9.9756775,1.5684953
287,1663314881668,0.8985049,-9.927821,1.5613167
288,1663314881669,0.9343972,-9.875179,1.5684953
289,1663314881674,0.94396853,-9.829716,1.558924
290,1663314881674,0.8985049,-9.810573,1.5086746
291,1663314881678,0.8889336,-9.789038,1.4440684
292,1663314881679,0.8458628,-9.6834545,1.3722838
293,1663314881683,0.7477571,-9.731609,1.3651053
294,1663314881683,0.8362915,-9.637991,1.2837493
295,1663314881687,0.64965135,-9.745967,1.3986049
296,1663314881688,0.43878385,-9.868001,1.5373886
297,1663314881693,0.2832504,-9.911072,1.599602
298,1663314881693,0.13250256,-9.946963,1.6307086
299,1663314881697,0.0317049,-10.025927,1.6187445
300,1663314881698,-0.068793654,-10.133604,1.6091732
301,1663314881703,-0.22432712,-10.243673,1.544567
302,1663314881704,-0.37268212,-10.349257,1.4799608
303,1663314881708,-0.4444668,-10.447363,1.4440684
304,1663314881709,-0.34157544,-10.490434,1.2669996
305,1663314881713,-0.45164528,-10.586146,1.1976078
306,1663314881713,-0.6840482,-10.864013,1.3507484
307,1663314881718,-0.83958167,-11.050653,1.4919249
308,1663314881718,-0.8539386,-11.1631155,1.558924
309,1663314881723,-0.84436727,-11.330613,1.5828521
310,1663314881723,-0.69122666,-11.440983,1.6187445
311,1663314881729,-0.5883353,-11.622837,1.666601
312,1663314881729,-0.46839502,-11.797513,1.7386848
313,1663314881732,-0.293719,-11.914762,1.7769699
314,1663314881732,-0.1381855,-12.049058,1.8056837
315,1663314881737,-0.011365907,-12.147164,1.843969
316,1663314881737,0.08943175,-12.273984,1.9085752
317,1663314881742,0.27367908,-12.367304,1.9731814
318,1663314881743,0.43878385,-12.455838,1.9301106
319,1663314881747,0.5057829,-12.549458,1.9061823
320,1663314881748,0.4339982,-12.683455,1.9253249
321,1663314881752,0.3909274,-12.760026,1.9013968
322,1663314881752,0.41485563,-12.827024,1.8128623
323,1663314881758,0.46989053,-12.9083805,1.7048861
324,1663314881758,0.51056856,-13.016058,1.4895321
325,1663314881763,0.5943173,-13.102499,1.2789637
326,1663314881764,0.6134599,-13.1694975,1.1015958
327,1663314881767,0.60628146,-13.207783,0.97956175
328,1663314881767,0.58953166,-13.207783,0.82881397
329,1663314881772,0.5799604,-13.1694975,0.6589235
330,1663314881772,0.5943173,-13.11207,0.5844469
331,1663314881777,0.61106706,-13.080664,0.503091
332,1663314881777,0.58474606,-13.025629,0.42891344
333,1663314881782,0.5416752,-12.961023,0.43609193
334,1663314881782,0.4531408,-12.88206,0.42652065
335,1663314881787,0.3502494,-12.838989,0.43130627
336,1663314881787,0.24496523,-12.791133,0.41694933
337,1663314881792,0.09421739,-12.745669,0.3595216
338,1663314881792,-0.08793623,-12.750455,0.26620153
339,1663314881797,-0.32243285,-12.700205,0.17288144
340,1663314881797,-0.5452645,-12.707384,0.04127619
341,1663314881802,-0.7821539,-12.690634,-0.042771704
342,1663314881803,-1.0190433,-12.73849,-0.18394823
343,1663314881807,-1.2370893,-12.781561,-0.33230326
344,1663314881807,-1.3663018,-12.901202,-0.50458646
345,1663314881811,-1.4620147,-12.949059,-0.6843473
346,1663314881811,-1.4380864,-12.97538,-0.89491564
347,1663314881816,-1.2634103,-13.0687,-1.1153544
348,1663314881816,-0.95443714,-13.135998,-1.2182459
349,1663314881822,-0.47318068,-13.140783,-1.2876377
350,1663314881822,0.09421739,-13.114463,-1.256531
351,1663314881827,0.79800636,-13.083056,-1.1919248
352,1663314881827,1.5233307,-12.9801655,-1.0408778
353,1663314881831,2.1744776,-12.841382,-0.8039884
354,1663314881831,2.710769,-12.716955,-0.47347978
355,1663314881836,3.1393833,-12.58535,-0.06669993
356,1663314881836,3.4387853,-12.412767,0.36909288
357,1663314881841,3.5847473,-12.2787695,0.8383852
358,1663314881841,3.6684961,-12.120843,1.2550355
359,1663314881846,3.6541393,-11.967403,1.6163517
360,1663314881846,3.563212,-11.835798,1.9348962
361,1663314881851,3.455535,-11.737693,2.2387848
362,1663314881851,3.318845,-11.716157,2.4472594
363,1663314881856,3.1896327,-11.692228,2.5692933
364,1663314881856,3.0795627,-11.730514,2.6362925
365,1663314881861,2.952743,-11.787942,2.71047
366,1663314881861,2.804089,-11.847762,2.6602206
367,1663314881865,2.6892335,-11.869298,2.559722
368,1663314881866,2.5432713,-11.883655,2.41376
369,1663314881871,2.3374887,-11.871691,2.2316062
370,1663314881871,2.1050856,-11.826227,1.9899311
371,1663314881875,1.8562322,-11.787942,1.7338991
372,1663314881876,1.6022938,-11.706586,1.5230316
373,1663314881881,1.3342978,-11.656337,1.3076776
374,1663314881881,1.0420742,-11.572588,1.044168
375,1663314881886,0.87218386,-11.510374,0.8383852
376,1663314881886,0.802792,-11.460125,0.70678
377,1663314881891,0.67836523,-11.411969,0.56769717
378,1663314881891,0.5033901,-11.3162565,0.47198427
379,1663314881895,0.3909274,-11.246864,0.51266223
380,1663314881896,0.39571303,-11.232508,0.5509474
381,1663314881901,0.34785658,-11.17508,0.64217377
382,1663314881902,0.3574279,-11.141581,0.75463647
383,1663314881906,0.517747,-11.136795,0.8455637
384,1663314881906,0.5799604,-11.143973,0.86231345
385,1663314881910,0.70947194,-11.055439,0.9197412
386,1663314881910,0.70947194,-10.921441,0.9771689
387,1663314881915,0.762114,-10.827822,1.0106685
388,1663314881915,0.7932207,-10.660324,1.015454
389,1663314881920,0.8673982,-10.526326,1.0010972
390,1663314881921,1.0253245,-10.413863,0.90538424
391,1663314881925,1.0875379,-10.299007,0.84077805
392,1663314881925,1.2481561,-10.262816,0.7618149
393,1663314881931,1.410868,-10.195817,0.63978094
394,1663314881931,1.3510475,-10.143175,0.5557331
395,1663314881935,1.2816557,-10.061819,0.50787663
396,1663314881935,1.4659029,-10.009177,0.36430725
397,1663314881941,1.5400804,-9.954143,0.30209386
398,1663314881941,1.5711871,-9.891929,0.25902304
399,1663314881945,1.6860427,-9.829716,0.1274178
400,1663314881945,1.5903298,-9.690633,0.11545369
