,timestamp,acc_x,acc_y,acc_z
0,1663334758273,-1.9875383,2.449054,9.352647
1,1663334758293,-1.9588244,2.420041,9.333504
2,1663334758294,-1.9540387,2.4538395,9.319147
3,1663334758294,-1.9851454,2.4346972,9.316754
4,1663334758294,-1.966003,2.4418755,9.316754
5,1663334758294,-1.9827527,2.4299114,9.316754
6,1663334758294,-1.9947168,2.4394827,9.295218
7,1663334758294,-1.9827527,2.4418755,9.30479
8,1663334758294,-1.992324,2.4442682,9.309576
9,1663334758294,-1.9612173,2.4681966,9.319147
10,1663334758298,-1.977967,2.4658036,9.283255
11,1663334758299,-1.9492532,2.4275186,9.28804
12,1663334758301,-1.9851454,2.4346972,9.28804
13,1663334758305,-1.9851454,2.4681966,9.319147
14,1663334758307,-1.9803598,2.449054,9.307182
15,1663334758308,-1.9588244,2.4634109,9.302397
16,1663334758311,-1.951646,2.4729822,9.292826
17,1663334758313,-1.9588244,2.4705894,9.319147
18,1663334758316,-1.9468603,2.4849463,9.309576
19,1663334758318,-1.9540387,2.4849463,9.3358965
20,1663334758321,-1.9348962,2.4825535,9.328718
21,1663334758323,-1.9444675,2.4849463,9.359825
22,1663334758325,-1.9588244,2.4945176,9.3358965
23,1663334758327,-1.951646,2.5184457,9.338289
24,1663334758331,-1.951646,2.5375884,9.350254
25,1663334758333,-1.9277177,2.5232315,9.367003
26,1663334758335,-1.9181465,2.5256243,9.350254
27,1663334758337,-1.9348962,2.4969103,9.340682
28,1663334758340,-1.9420747,2.5375884,9.333504
29,1663334758342,-1.9540387,2.53041,9.309576
30,1663334758345,-1.937289,2.5184457,9.302397
31,1663334758346,-1.9612173,2.5112674,9.311969
32,1663334758348,-1.9348962,2.5256243,9.285647
33,1663334758351,-1.966003,2.5088747,9.290433
34,1663334758354,-2.0090737,2.516053,9.276076
35,1663334758356,-2.0210378,2.477768,9.24467
36,1663334758358,-2.0282164,2.4921248,9.247063
37,1663334758359,-2.044966,2.4681966,9.256635
38,1663334758364,-2.1023939,2.4586253,9.237492
39,1663334758364,-2.1095722,2.449054,9.254242
40,1663334758368,-2.1047866,2.4251258,9.249456
41,1663334758374,-2.1119652,2.408077,9.251849
42,1663334758375,-2.1601207,2.4104698,9.256635
43,1663334758375,-2.1625135,2.4152553,9.283255
44,1663334758378,-2.1912274,2.3961127,9.300004
45,1663334758379,-2.207977,2.367399,9.316754
46,1663334758383,-2.2223341,2.367399,9.34786
47,1663334758384,-2.2390838,2.338685,9.3358965
48,1663334758387,-2.2510478,2.3434706,9.367003
49,1663334758389,-2.274976,2.3434706,9.383753
50,1663334758391,-2.2677977,2.355435,9.39811
51,1663334758393,-2.274976,2.338685,9.41486
52,1663334758398,-2.277369,2.338685,9.460323
53,1663334758398,-2.263012,2.3338995,9.486645
54,1663334758401,-2.2845473,2.3434706,9.498609
55,1663334758402,-2.2582264,2.3410778,9.505787
56,1663334758404,-2.248655,2.3602204,9.52493
57,1663334758408,-2.2175484,2.3578277,9.539287
58,1663334758410,-2.1816561,2.3578277,9.548858
59,1663334758413,-2.155335,2.367399,9.539287
60,1663334758414,-2.1457636,2.353042,9.527323
61,1663334758416,-2.1239293,2.3697917,9.570394
62,1663334758419,-2.1023939,2.3985057,9.563215
63,1663334758422,-2.0784655,2.417648,9.563215
64,1663334758424,-2.0521445,2.405684,9.568001
65,1663334758427,-2.0090737,2.4418755,9.556036
66,1663334758430,-2.006681,2.4275186,9.560822
67,1663334758432,-1.9588244,2.4466612,9.587143
68,1663334758434,-1.9588244,2.4323041,9.577572
69,1663334758437,-1.9301106,2.4562325,9.570394
70,1663334758439,-1.8846469,2.4705894,9.577572
71,1663334758441,-1.8798612,2.4514468,9.570394
72,1663334758444,-1.8343977,2.4849463,9.558429
73,1663334758447,-1.8008982,2.4825535,9.50818
74,1663334758448,-1.8056837,2.477768,9.522537
75,1663334758450,-1.7745771,2.477768,9.486645
76,1663334758453,-1.7961125,2.4801607,9.47468
77,1663334758455,-1.7673986,2.4825535,9.438788
78,1663334758458,-1.7673986,2.4945176,9.436396
79,1663334758460,-1.7745771,2.487339,9.400503
80,1663334758463,-1.7841483,2.5136602,9.410074
81,1663334758465,-1.7673986,2.5136602,9.38136
82,1663334758466,-1.7769699,2.5232315,9.350254
83,1663334758469,-1.7817556,2.5519454,9.333504
84,1663334758472,-1.7961125,2.5088747,9.307182
85,1663334758474,-1.7745771,2.4993033,9.256635
86,1663334758476,-1.7961125,2.5256243,9.249456
87,1663334758479,-1.7865412,2.5375884,9.223135
88,1663334758480,-1.7961125,2.5112674,9.180064
89,1663334758483,-1.788934,2.53041,9.153743
90,1663334758486,-1.7937196,2.5064816,9.139386
91,1663334758489,-1.8056837,2.5184457,9.122637
92,1663334758491,-1.8200407,2.5351956,9.134601
93,1663334758493,-1.8128623,2.5208387,9.139386
94,1663334758496,-1.829612,2.5328028,9.122637
95,1663334758497,-1.8200407,2.5112674,9.153743
96,1663334758499,-1.7769699,2.5232315,9.1465645
97,1663334758503,-1.7817556,2.5208387,9.141779
98,1663334758505,-1.788934,2.53041,9.134601
99,1663334758507,-1.7745771,2.5184457,9.148957
100,1663334758510,-1.7865412,2.5232315,9.148957
101,1663334758511,-1.788934,2.4945176,9.148957
102,1663334758513,-1.7961125,2.487339,9.156136
103,1663334758516,-1.7817556,2.516053,9.170493
104,1663334758519,-1.7721843,2.4801607,9.196814
105,1663334758522,-1.788934,2.4849463,9.206385
106,1663334758523,-1.815255,2.477768,9.215957
107,1663334758526,-1.815255,2.4538395,9.220742
108,1663334758530,-1.8272192,2.4705894,9.203992
109,1663334758530,-1.8463618,2.461018,9.208778
110,1663334758533,-1.8487546,2.4562325,9.201599
111,1663334758537,-1.8511474,2.4681966,9.192028
112,1663334758538,-1.8726828,2.461018,9.180064
113,1663334758540,-1.8894325,2.4634109,9.182457
114,1663334758542,-1.8918254,2.4299114,9.1681
115,1663334758544,-1.8918254,2.43709,9.148957
116,1663334758548,-1.9085752,2.4442682,9.12503
117,1663334758549,-1.9181465,2.4514468,9.113065
118,1663334758552,-1.9205393,2.461018,9.110672
119,1663334758556,-1.8942182,2.4729822,9.065208
120,1663334758556,-1.8822541,2.5184457,9.053245
121,1663334758559,-1.9013968,2.5328028,9.053245
122,1663334758562,-1.9181465,2.5232315,9.072387
123,1663334758564,-1.9348962,2.4681966,9.019745
124,1663334758565,-1.9947168,2.4705894,9.010174
125,1663334758569,-1.9851454,2.4538395,8.979067
126,1663334758572,-1.9971097,2.4227328,9.000603
127,1663334758574,-2.004288,2.417648,9.02453
128,1663334758576,-1.9564316,2.420041,9.053245
129,1663334758578,-1.977967,2.4275186,9.077172
130,1663334758580,-1.910968,2.477768,9.11785
131,1663334758583,-1.8966111,2.4969103,9.194421
132,1663334758586,-1.8942182,2.487339,9.237492
133,1663334758588,-1.9181465,2.4658036,9.285647
134,1663334758590,-1.8918254,2.43709,9.331111
135,1663334758593,-1.8750757,2.4586253,9.388538
136,1663334758595,-1.8607187,2.4394827,9.402896
137,1663334758597,-1.8918254,2.4346972,9.453145
138,1663334758599,-1.8678972,2.4418755,9.49143
139,1663334758601,-1.803291,2.461018,9.532108
140,1663334758605,-1.803291,2.4586253,9.572786
141,1663334758605,-1.7985053,2.4825535,9.589536
142,1663334758608,-1.7769699,2.475375,9.589536
143,1663334758610,-1.803291,2.4586253,9.568001
144,1663334758614,-1.8104694,2.4514468,9.558429
145,1663334758615,-1.843969,2.4227328,9.544072
146,1663334758618,-1.8798612,2.4227328,9.541679
147,1663334758620,-1.9037895,2.3985057,9.577572
148,1663334758623,-1.9803598,2.3865414,9.58475
149,1663334758624,-2.0497518,2.3602204,9.61825
150,1663334758627,-2.1023939,2.3602204,9.670892
151,1663334758630,-2.169692,2.3458636,9.692428
152,1663334758631,-2.1936202,2.365006,9.733106
153,1663334758636,-2.248655,2.365006,9.752248
154,1663334758637,-2.3108685,2.338685,9.747462
155,1663334758642,-2.356332,2.312364,9.754641
156,1663334758642,-2.3826532,2.2956142,9.752248
157,1663334758644,-2.423331,2.3147569,9.735498
158,1663334758646,-2.492723,2.3051856,9.690035
159,1663334758649,-2.5166512,2.2908285,9.666106
160,1663334758651,-2.5501506,2.2836502,9.634999
161,1663334758653,-2.6195426,2.2621148,9.599107
162,1663334758656,-2.681756,2.245365,9.548858
163,1663334758658,-2.7418756,2.2429721,9.477073
164,1663334758661,-2.8064818,2.2381866,9.412467
165,1663334758662,-2.8471599,2.2525434,9.362218
166,1663334758665,-2.883052,2.2429721,9.30479
167,1663334758668,-2.9165516,2.2286153,9.256635
168,1663334758670,-2.8782666,2.2214367,9.24467
169,1663334758674,-2.8663025,2.2669003,9.256635
170,1663334758675,-2.8375885,2.3051856,9.256635
171,1663334758679,-2.8016963,2.298007,9.232706
172,1663334758679,-2.7705896,2.2788644,9.165708
173,1663334758681,-2.7155547,2.2525434,9.105886
174,1663334758685,-2.6626134,2.19033,9.05803
175,1663334758688,-2.6482565,2.1975086,9.055637
176,1663334758689,-2.5525436,2.216651,9.036494
177,1663334758691,-2.4975085,2.216651,9.0747795
178,1663334758694,-2.4616163,2.2357936,9.110672
179,1663334758695,-2.3682961,2.2262223,9.172886
180,1663334758697,-2.3539393,2.2788644,9.24467
181,1663334758700,-2.2725832,2.286043,9.285647
182,1663334758703,-2.196013,2.2740788,9.328718
183,1663334758705,-2.1481566,2.309971,9.3765745
184,1663334758708,-2.1047866,2.3147569,9.434002
185,1663334758711,-2.07368,2.3051856,9.49143
186,1663334758714,-2.0282164,2.326721,9.556036
187,1663334758717,-1.9851454,2.2908285,9.606286
188,1663334758717,-1.9995024,2.3051856,9.690035
189,1663334758721,-1.9444675,2.269293,9.713963
190,1663334758722,-1.9612173,2.2645075,9.747462
191,1663334758724,-1.9588244,2.2525434,9.783355
192,1663334758727,-1.9707886,2.231008,9.800104
193,1663334758729,-1.9899311,2.1735802,9.824331
194,1663334758732,-1.9971097,2.149652,9.855438
195,1663334758735,-2.0162523,2.1352952,9.862617
196,1663334758736,-2.0425732,2.0922244,9.857831
197,1663334758740,-2.0497518,2.0898316,9.860224
198,1663334758743,-2.033002,2.068296,9.869795
199,1663334758744,-2.085644,2.0467606,9.855438
200,1663334758745,-2.07368,2.0371895,9.824331
201,1663334758747,-2.0832512,2.0467606,9.802497
202,1663334758750,-2.1047866,2.0659032,9.776176
203,1663334758754,-2.0880368,2.0395823,9.754641
204,1663334758755,-2.0880368,2.070689,9.728319
205,1663334758757,-2.0832512,2.0850458,9.716355
206,1663334758759,-2.05693,2.1017957,9.663713
207,1663334758762,-2.0521445,2.1065812,9.663713
208,1663334758764,-2.044966,2.1400807,9.625428
209,1663334758768,-2.0258234,2.1400807,9.594321
210,1663334758769,-2.0306091,2.1735802,9.568001
211,1663334758773,-1.9995024,2.1664019,9.517751
212,1663334758792,-2.004288,2.1807587,9.479466
213,1663334758792,-1.9444675,2.2214367,9.407681
214,1663334758792,-1.9755741,2.2214367,9.412467
215,1663334758792,-1.9683957,2.2214367,9.359825
216,1663334758792,-1.9420747,2.2669003,9.316754
217,1663334758792,-1.9564316,2.2956142,9.235099
218,1663334758792,-1.9971097,2.2932215,9.227921
219,1663334758792,-1.9803598,2.2788644,9.213564
220,1663334758793,-2.0018952,2.2812574,9.165708
221,1663334758796,-1.9995024,2.3003998,9.122637
222,1663334758797,-2.018645,2.3434706,9.069994
223,1663334758800,-2.0545373,2.3051856,9.05803
224,1663334758804,-2.097608,2.3027928,8.993423
225,1663334758804,-2.126322,2.2884357,8.99821
226,1663334758808,-2.167299,2.2908285,8.979067
227,1663334758810,-2.1912274,2.3027928,8.962317
228,1663334758811,-2.184049,2.2764716,8.950353
229,1663334758813,-2.2151556,2.3051856,8.962317
230,1663334758817,-2.2271197,2.3171496,8.943174
231,1663334758819,-2.2917259,2.269293,8.955139
232,1663334758822,-2.315654,2.259722,8.940782
233,1663334758823,-2.3611178,2.216651,8.986245
234,1663334758826,-2.39701,2.2262223,8.995817
235,1663334758829,-2.3922246,2.2094727,9.019745
236,1663334758831,-2.4041886,2.2142582,9.017352
237,1663334758834,-2.4568307,2.1975086,9.065208
238,1663334758835,-2.466402,2.2262223,9.048459
239,1663334758838,-2.4759731,2.1927228,9.050852
240,1663334758841,-2.519044,2.1520448,9.046066
241,1663334758842,-2.5405796,2.1185453,9.060423
242,1663334758845,-2.5405796,2.123331,9.069994
243,1663334758847,-2.5381866,2.082653,9.041281
244,1663334758850,-2.562115,2.1017957,9.060423
245,1663334758852,-2.5812573,2.0874386,9.077172
246,1663334758854,-2.5860431,2.0874386,9.110672
247,1663334758856,-2.6243281,2.0754745,9.122637
248,1663334758859,-2.6434708,2.0587249,9.093923
249,1663334758861,-2.6458635,2.0635104,9.113065
250,1663334758863,-2.6458635,2.0371895,9.153743
251,1663334758868,-2.6506493,2.0467606,9.199206
252,1663334758869,-2.669792,2.0467606,9.182457
253,1663334758872,-2.667399,2.0754745,9.230313
254,1663334758873,-2.6362925,2.070689,9.271291
255,1663334758876,-2.6195426,2.0802603,9.343075
256,1663334758878,-2.6027927,2.108974,9.364611
257,1663334758880,-2.5908287,2.1137598,9.362218
258,1663334758882,-2.5956144,2.1041884,9.378967
259,1663334758885,-2.571686,2.1257238,9.412467
260,1663334758887,-2.5764718,2.120938,9.422038
261,1663334758889,-2.571686,2.1065812,9.441181
262,1663334758893,-2.5549364,2.1664019,9.434002
263,1663334758895,-2.5764718,2.161616,9.434002
264,1663334758897,-2.6004,2.137688,9.41486
265,1663334758899,-2.6243281,2.1257238,9.378967
266,1663334758901,-2.6650062,2.0946171,9.352647
267,1663334758904,-2.6745775,2.1065812,9.323933
268,1663334758906,-2.6889346,2.1041884,9.290433
269,1663334758909,-2.6841488,2.0802603,9.256635
270,1663334758911,-2.6985056,2.0922244,9.261719
271,1663334758913,-2.710769,2.120938,9.261719
272,1663334758915,-2.710769,2.1400807,9.268898
273,1663334758918,-2.7032914,2.1544378,9.249456
274,1663334758920,-2.7203403,2.1400807,9.283255
275,1663334758923,-2.6578279,2.1951156,9.30479
276,1663334758925,-2.6554348,2.2118654,9.323933
277,1663334758927,-2.6315067,2.2262223,9.3358965
278,1663334758929,-2.629114,2.2477577,9.352647
279,1663334758932,-2.5812573,2.259722,9.369396
280,1663334758935,-2.5357938,2.298007,9.422038
281,1663334758937,-2.5118656,2.3027928,9.467502
282,1663334758939,-2.5022943,2.3338995,9.486645
283,1663334758942,-2.466402,2.338685,9.52493
284,1663334758945,-2.4352953,2.3315065,9.548858
285,1663334758945,-2.4161527,2.3171496,9.558429
286,1663334758949,-2.3802602,2.3482563,9.5919285
287,1663334758952,-2.3467607,2.367399,9.627821
288,1663334758954,-2.3467607,2.3434706,9.654142
289,1663334758955,-2.3084757,2.3458636,9.685248
290,1663334758958,-2.274976,2.350649,9.69482
291,1663334758959,-2.2797618,2.3602204,9.701999
292,1663334758964,-2.2319052,2.379363,9.709177
293,1663334758966,-2.1912274,2.355435,9.7450695
294,1663334758969,-2.1601207,2.3721845,9.740284
295,1663334758970,-2.1457636,2.3721845,9.754641
296,1663334758972,-2.1239293,2.367399,9.776176
297,1663334758975,-2.097608,2.355435,9.764212
298,1663334758977,-2.1000009,2.3626132,9.795319
299,1663334758978,-2.0497518,2.3745773,9.790533
300,1663334758982,-2.0210378,2.3697917,9.792926
301,1663334758984,-1.9875383,2.3697917,9.790533
302,1663334758987,-1.9612173,2.3913271,9.783355
303,1663334758989,-1.9277177,2.3817558,9.800104
304,1663334758991,-1.9085752,2.3626132,9.80489
305,1663334758994,-1.8942182,2.3626132,9.790533
306,1663334758995,-1.8822541,2.365006,9.790533
307,1663334758998,-1.843969,2.312364,9.761819
308,1663334759001,-1.8176479,2.3195424,9.773783
309,1663334759003,-1.8008982,2.3051856,9.728319
310,1663334759006,-1.7745771,2.3003998,9.697213
311,1663334759007,-1.7721843,2.2740788,9.642178
312,1663334759011,-1.7769699,2.2764716,9.589536
313,1663334759012,-1.7434704,2.2381866,9.58475
314,1663334759016,-1.7482561,2.2525434,9.548858
315,1663334759017,-1.7482561,2.2621148,9.515358
316,1663334759019,-1.7434704,2.257329,9.49143
317,1663334759022,-1.7410775,2.2740788,9.47468
318,1663334759025,-1.7578273,2.2788644,9.457931
319,1663334759028,-1.7458632,2.2812574,9.410074
320,1663334759029,-1.7386848,2.2836502,9.383753
321,1663334759031,-1.7482561,2.2740788,9.359825
322,1663334759034,-1.7195421,2.3027928,9.331111
323,1663334759037,-1.7147565,2.2956142,9.28804
324,1663334759039,-1.7243278,2.2884357,9.247063
325,1663334759040,-1.7386848,2.2812574,9.24467
326,1663334759042,-1.7482561,2.3219352,9.206385
327,1663334759046,-1.7530417,2.3027928,9.180064
328,1663334759049,-1.7626129,2.2956142,9.139386
329,1663334759050,-1.7602202,2.3027928,9.127422
330,1663334759052,-1.7650058,2.2956142,9.12503
331,1663334759056,-1.7650058,2.309971,9.089137
332,1663334759058,-1.7769699,2.3051856,9.101101
333,1663334759059,-1.8320048,2.312364,9.09153
334,1663334759061,-1.829612,2.3291137,9.081959
335,1663334759064,-1.8487546,2.3338995,9.048459
336,1663334759068,-1.8750757,2.3578277,9.055637
337,1663334759069,-1.8583258,2.3602204,9.0747795
338,1663334759072,-1.87029,2.3578277,9.081959
339,1663334759075,-1.8822541,2.379363,9.09153
340,1663334759076,-1.9133608,2.3578277,9.103494
341,1663334759079,-1.9133608,2.365006,9.120243
342,1663334759082,-1.9301106,2.3626132,9.120243
343,1663334759084,-1.9731814,2.365006,9.136993
344,1663334759086,-1.9683957,2.3721845,9.1465645
345,1663334759090,-2.0258234,2.3602204,9.127422
346,1663334759091,-2.0401804,2.353042,9.153743
347,1663334759094,-2.0832512,2.3626132,9.170493
348,1663334759094,-2.0952153,2.353042,9.18485
349,1663334759098,-2.114358,2.3626132,9.230313
350,1663334759100,-2.1311076,2.365006,9.261719
351,1663334759103,-2.1311076,2.3482563,9.285647
352,1663334759105,-2.1529422,2.3602204,9.261719
353,1663334759107,-2.2103698,2.3219352,9.249456
354,1663334759109,-2.2821546,2.2812574,9.215957
355,1663334759111,-2.2917259,2.271686,9.182457
356,1663334759115,-2.332404,2.2477577,9.1872425
357,1663334759117,-2.3682961,2.2429721,9.175279
358,1663334759119,-2.39701,2.245365,9.201599
359,1663334759122,-2.4496522,2.219044,9.213564
360,1663334759123,-2.4711876,2.2381866,9.239884
361,1663334759125,-2.4687948,2.2286153,9.300004
362,1663334759128,-2.5070798,2.2357936,9.3358965
363,1663334759131,-2.5381866,2.2525434,9.364611
364,1663334759133,-2.559722,2.2549362,9.386146
365,1663334759136,-2.5980072,2.2621148,9.405289
366,1663334759138,-2.5932214,2.231008,9.431609
367,1663334759140,-2.6027927,2.216651,9.465109
368,1663334759143,-2.612364,2.2046869,9.493823
369,1663334759144,-2.6338995,2.20708,9.536894
370,1663334759148,-2.641078,2.2142582,9.55125
371,1663334759150,-2.6506493,2.216651,9.572786
372,1663334759152,-2.6506493,2.2142582,9.6015
373,1663334759155,-2.6482565,2.2405794,9.608679
374,1663334759157,-2.6889346,2.1975086,9.599107
375,1663334759159,-2.7155547,2.1879373,9.556036
376,1663334759160,-2.7179475,2.111367,9.50818
377,1663334759165,-2.7203403,2.1161525,9.467502
378,1663334759167,-2.710769,2.123331,9.4483595
379,1663334759169,-2.7008986,2.1305094,9.417253
380,1663334759171,-2.7323043,2.1257238,9.39811
381,1663334759174,-2.7251258,2.161616,9.422038
382,1663334759175,-2.722733,2.1735802,9.417253
383,1663334759178,-2.7299116,2.1831515,9.39811
384,1663334759180,-2.734697,2.2046869,9.38136
385,1663334759182,-2.7083762,2.2381866,9.393325
386,1663334759185,-2.6913273,2.2405794,9.434002
387,1663334759187,-2.6482565,2.2477577,9.481859
388,1663334759191,-2.6267211,2.2621148,9.539287
389,1663334759191,-2.5956144,2.2525434,9.6015
390,1663334759195,-2.5692933,2.271686,9.663713
391,1663334759197,-2.5142584,2.2669003,9.733106
392,1663334759199,-2.4759731,2.259722,9.829117
393,1663334759201,-2.3898315,2.2956142,9.903295
394,1663334759205,-2.2677977,2.298007,9.994222
395,1663334759206,-2.1649063,2.3291137,10.113863
396,1663334759207,-2.0521445,2.3315065,10.101899
397,1663334759210,-1.9995024,2.3458636,10.097114
398,1663334759213,-1.951646,2.3362923,10.068399
399,1663334759216,-1.9396819,2.3291137,10.0349
400,1663334759218,-1.9803598,2.3434706,10.0061865
401,1663334759220,-1.992324,2.3410778,10.020543
402,1663334759223,-1.9971097,2.3482563,10.008579
403,1663334759225,-2.0282164,2.3482563,9.963116
404,1663334759227,-2.0808585,2.3578277,9.987043
405,1663334759230,-2.1095722,2.3243282,10.192826
406,1663334759232,-2.044966,2.3195424,10.137792
407,1663334759235,-2.0665014,2.2812574,9.991829
408,1663334759237,-2.140679,2.2525434,9.92483
409,1663334759239,-2.1768703,2.231008,9.838689
410,1663334759241,-2.224727,2.2357936,9.709177
411,1663334759243,-2.1984057,2.2357936,9.749855
412,1663334759247,-2.1311076,2.2669003,9.642178
413,1663334759250,-2.1191435,2.2884357,9.505787
414,1663334759251,-2.143072,2.298007,9.455538
415,1663334759253,-2.2223341,2.3027928,9.441181
416,1663334759256,-2.3060827,2.3075783,9.457931
417,1663334759257,-2.2462623,2.3291137,9.577572
418,1663334759260,-2.184049,2.338685,9.501001
419,1663334759263,-2.1720848,2.3458636,9.453145
420,1663334759265,-2.1744776,2.3219352,9.472287
421,1663334759268,-2.1768703,2.3410778,9.41486
422,1663334759271,-2.1744776,2.350649,9.510572
423,1663334759794,-2.3132613,2.9395826,9.402896
424,1663334759794,-2.2989044,2.9467611,9.445967
425,1663334759794,-2.3228326,2.9539394,9.457931
426,1663334759794,-2.3012972,2.9539394,9.510572
427,1663334759794,-2.2869403,2.973082,9.510572
428,1663334759794,-2.277369,2.9467611,9.546465
429,1663334759794,-2.2462623,2.932404,9.534501
430,1663334759794,-2.2295125,2.9300113,9.532108
431,1663334759795,-2.2342982,2.922833,9.527323
432,1663334759797,-2.2462623,2.934797,9.498609
433,1663334759799,-2.248655,2.906083,9.501001
434,1663334759802,-2.2271197,2.932404,9.510572
435,1663334759804,-2.207977,2.9395826,9.568001
436,1663334759806,-2.140679,2.9300113,9.6015
437,1663334759808,-2.126322,2.9467611,9.606286
438,1663334759812,-2.097608,2.9659038,9.663713
439,1663334759814,-2.0377877,2.9802606,9.656535
440,1663334759815,-2.0258234,2.9853454,9.630214
441,1663334759818,-1.9827527,3.0212376,9.587143
442,1663334759821,-1.951646,3.0667014,9.575179
443,1663334759823,-1.9875383,3.1337004,9.570394
444,1663334759825,-2.07368,3.2126634,9.55125
445,1663334759828,-2.1023939,3.2653055,9.77139
446,1663334759829,-2.1000009,3.313162,9.963116
447,1663334759834,-2.0665014,3.3203406,9.972687
448,1663334759834,-2.044966,3.3490543,9.958329
449,1663334759838,-2.0928226,3.339483,10.192826
450,1663334759838,-2.0521445,3.3466616,10.432407
451,1663334759841,-1.9612173,3.3370903,10.518549
452,1663334759845,-1.803291,3.3346975,10.54487
453,1663334759846,-1.7362919,3.3107693,10.784153
454,1663334759849,-1.6740786,3.2748768,10.951949
455,1663334759851,-1.6310078,3.26052,10.992627
456,1663334759855,-1.5975082,3.179164,11.062019
457,1663334759855,-1.5613167,3.112165,11.112268
458,1663334759859,-1.5062819,3.0858438,11.114661
459,1663334759859,-1.4344971,3.0260234,11.023734
460,1663334759864,-1.3866407,2.9973094,11.004591
461,1663334759866,-1.3459628,2.9682965,10.9349
462,1663334759869,-1.3507484,2.9539394,10.772188
463,1663334759869,-1.3124632,2.9802606,10.628619
464,1663334759872,-1.2669996,3.0020952,10.504192
465,1663334759876,-1.2693924,2.9973094,10.338788
466,1663334759877,-1.2717853,3.054737,10.207183
467,1663334759880,-1.2646067,3.095415,10.104292
468,1663334759881,-1.2957134,3.1600213,9.987043
469,1663334759885,-1.3363914,3.1959138,9.867402
470,1663334759885,-1.3268201,3.2437701,9.792926
471,1663334759891,-1.3339987,3.286841,9.742677
472,1663334759892,-1.288535,3.301198,9.697213
473,1663334759894,-1.2789637,3.3059835,9.570394
474,1663334759897,-1.3100704,3.313162,9.445967
475,1663334759900,-1.3483555,3.35384,9.378967
476,1663334759902,-1.3746766,3.3586257,9.441181
477,1663334759903,-1.3818551,3.3251262,9.498609
478,1663334759905,-1.4249259,3.3203406,9.515358
479,1663334759910,-1.477568,3.2748768,9.620643
480,1663334759910,-1.5278172,3.2365918,9.713963
481,1663334759913,-1.5541383,3.231806,9.747462
482,1663334759915,-1.6477575,3.2102706,9.84826
483,1663334759918,-1.7697915,3.1289146,9.953544
484,1663334759919,-1.829612,3.054737,9.987043
485,1663334759921,-1.8463618,2.990131,9.910473
486,1663334759924,-1.96361,2.9515467,9.809675
487,1663334759927,-2.1167507,2.8893332,9.900902
488,1663334759930,-2.1744776,2.882155,10.0014
489,1663334759932,-2.236691,2.8510482,10.0349
490,1663334759934,-2.2103698,2.853441,9.951151
491,1663334759937,-2.30369,2.8366911,9.900902
492,1663334759937,-2.3778675,2.8295128,9.977472
493,1663334759941,-2.452045,2.824727,10.025329
494,1663334759944,-2.4711876,2.8366911,10.0061865
495,1663334759946,-2.4975085,2.8486555,9.94158
496,1663334759948,-2.5381866,2.8606195,9.896116
497,1663334759950,-2.5549364,2.8558338,9.872188
498,1663334759953,-2.5501506,2.8630123,9.83151
499,1663334759954,-2.562115,2.894119,9.721141
500,1663334759957,-2.519044,2.8989046,9.64457
501,1663334759959,-2.480759,2.934797,9.579965
502,1663334759961,-2.466402,2.949154,9.47468
503,1663334759965,-2.4687948,2.975475,9.400503
504,1663334759967,-2.4544377,2.9829526,9.297611
505,1663334759969,-2.4544377,3.0116663,9.230313
506,1663334759971,-2.452045,3.0284162,9.141779
507,1663334759974,-2.4424736,3.0499516,9.067601
508,1663334759976,-2.425724,3.0499516,8.955139
509,1663334759979,-2.4161527,3.0523443,8.892925
510,1663334759981,-2.425724,3.0882368,8.763713
511,1663334759984,-2.3898315,3.1265218,8.665308
512,1663334759985,-2.344368,3.0906296,8.583952
513,1663334759988,-2.3635106,3.1073792,8.478668
514,1663334759991,-2.344368,3.1025937,8.375776
515,1663334759992,-2.332404,3.112165,8.282456
516,1663334759995,-2.3060827,3.140879,8.210671
517,1663334759997,-2.289333,3.1432717,8.124231
518,1663334760000,-2.2917259,3.1552358,8.035697
519,1663334760006,-2.3012972,3.1480572,7.966305
520,1663334760006,-2.2845473,3.1671999,7.896913
521,1663334760007,-2.277369,3.191128,7.8346996
522,1663334760010,-2.2558336,3.179164,7.748558
523,1663334760012,-2.2558336,3.1695926,7.6983085
524,1663334760014,-2.2510478,3.1719856,7.624131
525,1663334760017,-2.2558336,3.193521,7.5352974
526,1663334760018,-2.236691,3.2078779,7.47787
527,1663334760021,-2.2390838,3.205485,7.437192
528,1663334760024,-2.2438695,3.1959138,7.396514
529,1663334760027,-2.2390838,3.2557342,7.3606215
530,1663334760028,-2.263012,3.2461631,7.322336
531,1663334760030,-2.2151556,3.2629128,7.3247294
532,1663334760034,-2.2295125,3.248556,7.3175507
533,1663334760035,-2.207977,3.2437701,7.286444
534,1663334760038,-2.2103698,3.2365918,7.219445
535,1663334760039,-2.2223341,3.2174492,7.1835527
536,1663334760041,-2.2271197,3.2437701,7.1835527
537,1663334760045,-2.2127628,3.2461631,7.1596246
538,1663334760047,-2.1912274,3.2509487,7.152446
539,1663334760054,-2.2342982,3.2389846,7.178767
540,1663334760054,-2.2414765,3.2006993,7.1715884
541,1663334760054,-2.248655,3.219842,7.099804
542,1663334760057,-2.265405,3.2174492,7.0375905
543,1663334760060,-2.2725832,3.191128,6.9966135
544,1663334760061,-2.3419752,3.2078779,6.9798636
545,1663334760064,-2.370689,3.2389846,7.150053
546,1663334760066,-2.3371894,3.2341988,7.150053
547,1663334760068,-2.2965117,3.1887352,7.025626
548,1663334760070,-2.315654,3.1863425,7.016055
549,1663334760072,-2.3276181,3.203092,7.032805
550,1663334760075,-2.3682961,3.2174492,7.056733
551,1663334760078,-2.411367,3.231806,7.16441
552,1663334760081,-2.3682961,3.2246277,7.114161
553,1663334760082,-2.3371894,3.203092,7.068697
554,1663334760085,-2.3371894,3.2533414,7.097411
555,1663334760086,-2.318047,3.286841,7.140482
556,1663334760091,-2.3276181,3.3179476,7.19791
557,1663334760092,-2.315654,3.3442688,7.272087
558,1663334760096,-2.3060827,3.3753755,7.372586
559,1663334760097,-2.3060827,3.3729825,7.49462
560,1663334760100,-2.3276181,3.4040892,7.6337023
561,1663334760101,-2.3204398,3.3945181,7.760522
562,1663334760103,-2.2821546,3.3873396,7.8777704
563,1663334760106,-2.2797618,3.3777683,7.990233
564,1663334760109,-2.2438695,3.3658042,8.13141
565,1663334760111,-2.2103698,3.3705897,8.256135
566,1663334760113,-2.207977,3.3346975,8.351849
567,1663334760115,-2.1816561,3.3227334,8.457132
568,1663334760117,-2.140679,3.313162,8.536096
569,1663334760120,-2.1335006,3.2676985,8.574381
570,1663334760123,-2.140679,3.2772696,8.648559
571,1663334760125,-2.1239293,3.2796626,8.713464
572,1663334760127,-2.0952153,3.2844481,8.754142
573,1663334760130,-2.1119652,3.298805,8.823533
574,1663334760132,-2.0617158,3.3155549,8.852247
575,1663334760136,-2.0521445,3.3442688,8.892925
576,1663334760137,-2.05693,3.3777683,8.933603
577,1663334760139,-2.0401804,3.4016964,8.938389
578,1663334760143,-2.0162523,3.435196,8.99821
579,1663334760144,-2.018645,3.4830525,9.031709
580,1663334760147,-1.9995024,3.4782667,9.050852
581,1663334760149,-1.9731814,3.5189447,9.0747795
582,1663334760151,-1.9803598,3.5551362,9.108279
583,1663334760153,-1.96361,3.6053855,9.120243
584,1663334760156,-1.9492532,3.598207,9.153743
585,1663334760159,-1.9420747,3.6221352,9.18485
586,1663334760160,-1.9061823,3.6245282,9.170493
587,1663334760163,-1.8583258,3.6245282,9.215957
588,1663334760166,-1.8367904,3.6723845,9.237492
589,1663334760167,-1.8080766,3.7226338,9.292826
590,1663334760169,-1.7554345,3.8111682,9.374182
591,1663334760173,-1.7578273,3.8733816,9.441181
592,1663334760175,-1.7099708,3.947559,9.527323
593,1663334760177,-1.6214365,3.9882371,9.596714
594,1663334760179,-1.5684953,4.0121655,9.637392
595,1663334760181,-1.4871392,4.043272,9.64457
596,1663334760183,-1.4488541,4.057629,9.680463
597,1663334760187,-1.3459628,4.0384865,9.64457
598,1663334760190,-1.262214,4.033701,9.589536
599,1663334760191,-1.2382857,4.009773,9.520144
600,1663334760193,-1.1880364,3.976273,9.41486
601,1663334760196,-1.1521441,3.923631,9.309576
602,1663334760199,-1.1377872,3.882953,9.213564
603,1663334760200,-1.1138589,3.8446677,9.134601
604,1663334760202,-1.0851451,3.815954,9.09153
605,1663334760205,-1.0564312,3.7657046,9.050852
606,1663334760208,-1.0827522,3.746562,9.038888
607,1663334760210,-1.1377872,3.7154553,9.031709
608,1663334760213,-1.1162517,3.6819558,8.868998
609,1663334760215,-1.0707881,3.6915271,8.766106
610,1663334760217,-1.0564312,3.6843486,8.737391
611,1663334760219,-1.0707881,3.6915271,8.682058
612,1663334760222,-1.0564312,3.7441692,8.691629
613,1663334760225,-1.0636097,3.7561333,8.715857
614,1663334760226,-1.0851451,3.8015969,8.730213
615,1663334760230,-1.1210374,3.8015969,8.806784
616,1663334760232,-1.1018949,3.8518462,8.849854
617,1663334760233,-1.0827522,3.8781674,8.88814
618,1663334760235,-1.0612168,3.8470607,8.933603
619,1663334760239,-1.1042876,3.8781674,8.969496
620,1663334760241,-1.0803595,3.8494534,9.041281
621,1663334760243,-1.0875379,3.8231323,9.069994
622,1663334760245,-1.099502,3.7393837,9.134601
623,1663334760248,-1.1186446,3.7393837,9.242277
624,1663334760250,-1.1928221,3.705884,9.443574
625,1663334760252,-1.2933207,3.638885,9.568001
626,1663334760255,-1.329213,3.571886,9.544072
627,1663334760257,-1.3363914,3.516552,9.570394
628,1663334760259,-1.4033905,3.487838,9.613464
629,1663334760262,-1.5062819,3.4423745,9.752248
630,1663334760265,-1.5684953,3.3921251,9.776176
631,1663334760267,-1.6477575,3.3323047,9.78814
632,1663334760269,-1.7434704,3.2509487,9.841082
633,1663334760272,-1.8272192,3.1719856,9.963116
634,1663334762288,-1.3603196,2.1352952,8.631808
635,1663334762288,-1.4177474,2.1400807,8.394919
636,1663334762288,-1.5158532,2.0994027,8.112267
637,1663334762288,-1.558924,2.0659032,7.8466635
638,1663334762288,-1.6238292,2.0611176,7.57119
639,1663334762288,-1.6932211,2.041975,7.312765
640,1663334762288,-1.7769699,2.0491536,7.025626
641,1663334762290,-1.8463618,2.0491536,6.7573314
642,1663334762292,-1.9205393,2.068296,6.506085
643,1663334762296,-1.9755741,2.0611176,6.268896
644,1663334762298,-2.0425732,2.0443678,5.988936
645,1663334762300,-2.0808585,2.0228324,5.7373905
646,1663334762302,-2.140679,2.0443678,5.4837513
647,1663334762305,-2.1888344,2.0443678,5.2609196
648,1663334762307,-2.1577277,2.0946171,5.0359945
649,1663334762310,-2.1215365,2.1831515,4.7727838
650,1663334762313,-2.0665014,2.2142582,4.549952
651,1663334762315,-2.0090737,2.3003998,4.2795634
652,1663334762316,-1.9827527,2.3338995,4.0854454
653,1663334762318,-1.9061823,2.4032912,3.889234
654,1663334762322,-1.8559331,2.449054,3.6714873
655,1663334762323,-1.8176479,2.5136602,3.5132618
656,1663334762326,-1.8224336,2.5926232,3.362514
657,1663334762331,-1.8248264,2.62373,3.2189445
658,1663334762331,-1.7913269,2.7003005,3.0993035
659,1663334762334,-1.7817556,2.7481568,3.0200412
660,1663334762335,-1.7961125,2.7696922,2.929114
661,1663334762338,-1.8200407,2.812763,2.8525436
662,1663334762340,-1.7913269,2.8175488,2.7616165
663,1663334762343,-1.7626129,2.8558338,2.6922245
664,1663334762346,-1.7673986,2.879762,2.6252255
665,1663334762348,-1.7865412,2.879762,2.6036901
666,1663334762350,-1.8248264,2.8749764,2.5941188
667,1663334762353,-1.8774685,2.853441,2.62044
668,1663334762355,-1.9444675,2.8438697,2.699403
669,1663334762356,-2.0282164,2.7936203,2.780759
670,1663334762359,-2.1119652,2.7601209,2.8908288
671,1663334762363,-2.1649063,2.7433712,3.0032916
672,1663334762364,-2.224727,2.7290142,3.1112676
673,1663334762366,-2.2462623,2.7003005,3.24048
674,1663334762369,-2.224727,2.664408,3.4103706
675,1663334762371,-2.1744776,2.6572297,3.6376886
676,1663334762374,-2.140679,2.664408,3.8030925
677,1663334762377,-2.085644,2.6691937,4.0328035
678,1663334762379,-1.9851454,2.664408,4.281956
679,1663334762380,-1.9037895,2.676372,4.5188456
680,1663334762383,-1.8224336,2.7074788,4.729414
681,1663334762385,-1.7123637,2.7338,4.9235315
682,1663334762388,-1.654936,2.7433712,5.1604214
683,1663334762390,-1.5206388,2.757728,5.36411
684,1663334762393,-1.3842479,2.7912276,5.553143
685,1663334762395,-1.3316058,2.8151557,5.742176
686,1663334762397,-1.2167503,2.8486555,5.945865
687,1663334762399,-1.1018949,2.879762,6.154041
688,1663334762403,-1.00349,2.9108686,6.352645
689,1663334762404,-0.90538424,2.9252257,6.580262
690,1663334762406,-0.82642114,2.9419754,6.8650084
691,1663334762411,-0.7283154,2.949154,7.150053
692,1663334762412,-0.6230312,2.9706893,7.4395847
693,1663334762413,-0.5057829,3.0092735,7.667202
694,1663334762416,-0.42891344,3.0355947,7.920841
695,1663334762422,-0.36909288,3.0690942,8.17478
696,1663334762422,-0.30209386,3.0786655,8.385348
697,1663334762423,-0.20638095,3.1049864,8.5983095
698,1663334762426,-0.1585245,3.0906296,8.787642
699,1663334762428,-0.12502499,3.100201,8.938389
700,1663334762430,-0.11784652,3.1049864,9.050852
701,1663334762432,-0.11066805,3.0882368,9.223135
702,1663334762434,-0.13220344,3.112165,9.39811
703,1663334762438,-0.1274178,3.0930223,9.620643
704,1663334762440,-0.18245272,3.1073792,9.862617
705,1663334762442,-0.22791636,3.095415,10.106685
706,1663334762445,-0.23748764,3.0810583,10.406087
707,1663334762447,-0.26859435,3.0762727,10.745868
708,1663334762449,-0.31405798,3.030809,11.057234
709,1663334762450,-0.35473597,2.990131,11.361122
710,1663334762455,-0.35712877,2.934797,11.646167
711,1663334762456,-0.36430725,2.9084759,11.938091
712,1663334762459,-0.36909288,2.8199415,12.203994
713,1663334762462,-0.2973082,2.786442,12.443276
714,1663334762463,-0.23988047,2.71705,12.692429
715,1663334762466,-0.22791636,2.6907291,12.926926
716,1663334762467,-0.16091733,2.6428726,13.139887
717,1663334762471,-0.07956135,2.638087,13.307683
718,1663334762474,-0.04127619,2.6021945,13.49193
719,1663334762475,0.0017946169,2.597409,13.597215
720,1663334762478,0.071186475,2.5950162,13.702498
721,1663334762480,0.1480559,2.6165516,13.808083
722,1663334762481,0.18634106,2.6428726,13.968401
723,1663334762485,0.24855445,2.693122,14.157434
724,1663334762488,0.33708888,2.7672994,14.406587
725,1663334762491,0.43758744,2.9156544,14.641084
726,1663334762492,0.5524429,2.9563324,14.85883
727,1663334762494,0.6843473,3.045166,15.112769
728,1663334762499,0.81595254,3.0930223,15.320944
729,1663334762499,0.87338024,3.1217363,15.507884
730,1663334762501,0.9762716,3.1624143,15.675381
731,1663334762503,1.0600204,3.152843,15.8309145
732,1663334762506,1.119841,3.1767712,15.931413
733,1663334762511,1.134198,3.1695926,16.027426
734,1663334762511,1.1389836,3.164807,16.06571
735,1663334762513,1.1318051,3.1265218,16.144674
736,1663334762515,1.0719845,3.05713,16.242779
737,1663334762518,1.0073783,3.0140593,16.233208
738,1663334762520,0.9499506,2.9371898,16.247564
739,1663334762523,0.81834537,2.8558338,16.233208
740,1663334762524,0.74895346,2.7960134,16.204494
741,1663334762527,0.65054864,2.6883361,16.168602
742,1663334762531,0.53569317,2.6189444,16.09921
743,1663334762532,0.43758744,2.5519454,15.988841
744,1663334762535,0.32991043,2.4514468,15.895521
745,1663334762537,0.21984059,2.39372,15.778273
746,1663334762539,0.1576272,2.3362923,15.615561
747,1663334762545,0.030508488,2.2812574,15.438492
748,1663334762545,-0.060418773,2.269293,15.2324095
749,1663334762548,-0.12981063,2.2046869,15.031413
750,1663334762550,-0.20398813,2.19033,14.784653
751,1663334762553,-0.26141587,2.1592233,14.581263
752,1663334762554,-0.32123643,2.1568305,14.349159
753,1663334762555,-0.34277186,2.1664019,14.116756
754,1663334762558,-0.38823548,2.1544378,13.843974
755,1663334762561,-0.4336991,2.1448665,13.535002
756,1663334762563,-0.46989053,2.161616,13.252648
757,1663334762565,-0.51056856,2.1592233,12.955639
758,1663334762568,-0.53688955,2.2046869,12.627823
759,1663334762569,-0.5919245,2.2429721,12.330813
760,1663334762572,-0.6326025,2.271686,12.060125
761,1663334762574,-0.64217377,2.312364,11.744272
762,1663334762577,-0.6900302,2.379363,11.447264
763,1663334762580,-0.7043872,2.420041,11.184053
764,1663334762582,-0.72352976,2.4634109,10.908579
765,1663334762586,-0.72352976,2.5232315,10.599905
766,1663334762586,-0.72352976,2.5375884,10.290932
767,1663334762589,-0.7259226,2.5758736,10.025329
768,1663334762590,-0.7618149,2.597409,9.725926
769,1663334762594,-0.75224364,2.6333013,9.441181
770,1663334762596,-0.7713862,2.635694,9.180064
771,1663334762598,-0.7713862,2.6691937,8.907282
772,1663334762600,-0.7833503,2.6572297,8.610273
773,1663334762604,-0.7905288,2.6715865,8.356634
774,1663334762605,-0.8001001,2.6811578,8.045268
775,1663334762607,-0.8168498,2.7194428,7.760522
776,1663334762609,-0.8168498,2.7122645,7.5329046
777,1663334762613,-0.86949193,2.7146573,7.2696943
778,1663334762613,-0.9125627,2.7409782,7.030412
779,1663334762617,-0.9699905,2.7529426,6.7740808
780,1663334762619,-1.0058829,2.7505496,6.515656
781,1663334762622,-1.0348958,2.7625136,6.2090755
782,1663334762623,-1.0947163,2.7361927,5.9578295
783,1663334762626,-1.1090733,2.7553353,5.6991053
784,1663334762629,-1.1736795,2.7888348,5.404788
785,1663334762631,-1.1856437,2.7960134,5.15085
786,1663334762633,-1.2167503,2.8079774,4.906782
787,1663334762636,-1.2574283,2.8031917,4.6695933
788,1663334762639,-1.3052847,2.8103702,4.4925246
789,1663334762640,-1.3363914,2.8031917,4.3202415
790,1663334762643,-1.3914263,2.824727,4.1165524
791,1663334762646,-1.4201403,2.7912276,3.9490547
792,1663334762649,-1.4297116,2.7984061,3.8318064
793,1663334762650,-1.4344971,2.800799,3.6930227
794,1663334762652,-1.4584254,2.7984061,3.565904
795,1663334762655,-1.4679967,2.786442,3.4725838
796,1663334762657,-1.4799608,2.786442,3.391228
797,1663334762659,-1.5397813,2.7672994,3.3457642
798,1663334762662,-1.5903298,2.7601209,3.3266218
799,1663334762663,-1.5756737,2.7960134,3.3026934
800,1663334762666,-1.6142579,2.7816563,3.2859437
801,1663334762669,-1.6286149,2.757728,3.2907293
802,1663334762672,-1.6070795,2.7912276,3.293122
803,1663334762674,-1.6573287,2.7768707,3.3003006
804,1663334762681,-1.654936,2.8031917,3.2979078
805,1663334762681,-1.6932211,2.7960134,3.3122647
806,1663334762681,-1.7315062,2.8079774,3.3553355
807,1663334762683,-1.7578273,2.7912276,3.391228
808,1663334762686,-1.8128623,2.7960134,3.44387
809,1663334762692,-1.8463618,2.8055844,3.5084763
810,1663334762692,-1.8726828,2.8151557,3.5970106
811,1663334762695,-1.8990039,2.8366911,3.6786656
812,1663334762695,-1.9277177,2.841477,3.7743785
813,1663334762697,-1.9540387,2.8438697,3.8868413
814,1663334762699,-1.9588244,2.8630123,4.0160537
815,1663334762702,-1.9588244,2.8582265,4.1165524
816,1663334762704,-2.0018952,2.865405,4.21735
817,1663334762707,-1.9707886,2.865405,4.348955
818,1663334762709,-1.9612173,2.8319056,4.5044885
819,1663334762712,-1.9540387,2.8079774,4.6097727
820,1663334762715,-1.9301106,2.8199415,4.7485566
821,1663334762716,-1.9133608,2.800799,4.8900323
822,1663334762719,-1.9037895,2.7816563,5.02403
823,1663334762722,-1.8343977,2.7553353,5.165207
824,1663334762723,-1.8128623,2.7409782,5.32074
825,1663334762726,-1.7578273,2.7194428,5.462216
826,1663334762729,-1.7003996,2.7003005,5.622535
827,1663334762730,-1.6692929,2.6572297,5.7613187
828,1663334762734,-1.6525432,2.6117659,5.905187
829,1663334762735,-1.6381862,2.6021945,6.070292
830,1663334762737,-1.6621144,2.556731,6.1995044
831,1663334762739,-1.6381862,2.5112674,6.3335023
832,1663334762743,-1.6621144,2.475375,6.4869423
833,1663334762745,-1.6573287,2.417648,6.62094
834,1663334762746,-1.6453646,2.4008985,6.778867
835,1663334762751,-1.5879369,2.3817558,6.8913293
836,1663334762752,-1.6142579,2.3315065,7.056733
837,1663334762756,-1.5661024,2.3003998,7.173981
838,1663334762756,-1.5637096,2.2549362,7.322336
839,1663334762762,-1.4943178,2.2286153,7.504191
840,1663334762762,-1.4249259,2.2046869,7.679166
841,1663334762767,-1.3794622,2.1735802,7.8490562
842,1663334762767,-1.274178,2.1520448,8.033304
843,1663334762768,-1.2167503,2.1041884,8.244171
844,1663334762770,-1.1617154,2.1041884,8.461918
845,1663334763274,-0.8359924,2.2932215,9.544072
846,1663334763285,-0.89342016,2.3171496,9.38136
847,1663334763285,-0.8982058,2.3291137,9.180064
848,1663334763285,-0.9245269,2.3626132,8.967103
849,1663334763285,-0.9604192,2.4299114,8.768498
850,1663334763285,-1.015454,2.4658036,8.574381
851,1663334763288,-1.0420742,2.4993033,8.416454
852,1663334763290,-1.0660025,2.5351956,8.198708
853,1663334763293,-1.0516455,2.5639095,8.016554
854,1663334763295,-1.0707881,2.5519454,7.7964144
855,1663334763299,-1.0899308,2.5950162,7.57119
856,1663334763299,-1.0923235,2.6021945,7.396514
857,1663334763302,-1.1186446,2.585445,7.2003026
858,1663334763305,-1.1234303,2.5710878,7.0232334
859,1663334763306,-1.1330016,2.568695,6.8458657
860,1663334763310,-1.1688938,2.5902305,6.664011
861,1663334763310,-1.1784651,2.5639095,6.4845495
862,1663334763315,-1.166501,2.544767,6.3335023
863,1663334763316,-1.2119647,2.5423741,6.1827545
864,1663334763320,-1.1976078,2.5519454,6.0774703
865,1663334763320,-1.2335001,2.556731,5.9578295
866,1663334763323,-1.2191432,2.585445,5.8546386
867,1663334763325,-1.2215359,2.5710878,5.775676
868,1663334763328,-1.2550355,2.5710878,5.6967125
869,1663334763330,-1.247857,2.5543382,5.6392846
870,1663334763332,-1.2598212,2.5782664,5.5890355
871,1663334763336,-1.288535,2.5615165,5.560322
872,1663334763337,-1.302892,2.5806592,5.536393
873,1663334763340,-1.314856,2.5423741,5.486144
874,1663334763341,-1.3579268,2.544767,5.4430733
875,1663334763344,-1.4057833,2.53041,5.4311094
876,1663334763348,-1.4392828,2.5184457,5.433502
877,1663334763351,-1.4679967,2.5136602,5.4167523
878,1663334763352,-1.5086746,2.5256243,5.419145
879,1663334763354,-1.558924,2.5112674,5.4167523
880,1663334763358,-1.5927225,2.4969103,5.421538
881,1663334763367,-1.6381862,2.5112674,5.4263234
882,1663334763367,-1.6908283,2.5064816,5.433502
883,1663334763367,-1.7003996,2.4993033,5.435895
884,1663334763367,-1.7530417,2.5040889,5.445466
885,1663334763368,-1.7697915,2.4921248,5.4574304
886,1663334763370,-1.7913269,2.501696,5.4646087
887,1663334763373,-1.8080766,2.501696,5.4670014
888,1663334763374,-1.8320048,2.5064816,5.5076795
889,1663334763377,-1.8343977,2.5208387,5.541179
890,1663334763380,-1.7602202,2.5375884,5.5746784
891,1663334763383,-1.7602202,2.5399811,5.648856
892,1663334763389,-1.7458632,2.5734808,5.6871414
893,1663334763389,-1.7123637,2.5806592,5.725426
894,1663334763389,-1.654936,2.5639095,5.799604
895,1663334763391,-1.6190436,2.5998018,5.857032
896,1663334763393,-1.5903298,2.62373,5.919544
897,1663334763399,-1.5278172,2.6428726,5.9937215
898,1663334763399,-1.4608182,2.6476583,6.072685
899,1663334763400,-1.4057833,2.6309085,6.1301126
900,1663334763403,-1.3531412,2.652444,6.1971116
901,1663334763405,-1.262214,2.6859434,6.2736816
902,1663334763408,-1.2071791,2.7003005,6.343074
903,1663334763410,-1.1736795,2.6739793,6.3981085
904,1663334763413,-1.0899308,2.7122645,6.431608
905,1663334763416,-1.0420742,2.71705,6.4701924
906,1663334763417,-0.9987044,2.7098715,6.489335
907,1663334763420,-0.9125627,2.705086,6.541977
908,1663334763423,-0.90059865,2.7194428,6.546763
909,1663334763424,-0.8742776,2.6955147,6.599405
910,1663334763426,-0.8575278,2.7074788,6.6352973
911,1663334763429,-0.8024929,2.705086,6.6975107
912,1663334763432,-0.75463647,2.7314072,6.7812595
913,1663334763434,-0.6972087,2.7385855,6.876972
914,1663334763440,-0.6684948,2.7601209,6.9678993
915,1663334763440,-0.6014958,2.7792635,7.0878396
916,1663334763441,-0.56799626,2.812763,7.2026954
917,1663334763444,-0.5249255,2.8295128,7.3366933
918,1663334763445,-0.52253264,2.8438697,7.4180493
919,1663334763448,-0.46002015,2.8103702,7.5735826
920,1663334763450,-0.45044887,2.7888348,7.6959157
921,1663334763453,-0.3930211,2.7505496,7.858628
922,1663334763455,-0.3499503,2.7242286,8.030911
923,1663334763457,-0.33080772,2.6955147,8.160422
924,1663334763459,-0.31405798,2.6452653,8.330313
925,1663334763463,-0.3044867,2.5926232,8.473883
926,1663334763466,-0.29252258,2.5136602,8.627023
927,1663334763467,-0.3188436,2.449054,8.744571
928,1663334763471,-0.3475575,2.3841486,8.900104
929,1663334763472,-0.36430725,2.338685,9.105886
930,1663334763474,-0.38823548,2.2669003,9.297611
931,1663334763476,-0.40259242,2.219044,9.512965
932,1663334763479,-0.3906283,2.1592233,9.80489
933,1663334763481,-0.421735,2.111367,10.044471
934,1663334763485,-0.4001996,2.0347965,10.293324
935,1663334763488,-0.41934216,1.9701903,10.513763
936,1663334763490,-0.421735,1.9414765,10.757832
937,1663334763490,-0.4121637,1.8960128,10.980663
938,1663334763493,-0.37387854,1.8720846,11.174481
939,1663334763496,-0.3475575,1.8625133,11.387443
940,1663334763498,-0.33080772,1.879263,11.550454
941,1663334763500,-0.27337998,1.9103698,11.7825575
942,1663334763503,-0.22552353,1.9510478,11.971591
943,1663334763505,-0.21355942,2.001297,12.144173
944,1663334763506,-0.18245272,2.0587249,12.275779
945,1663334763509,-0.1585245,2.0898316,12.505489
946,1663334763512,-0.11066805,2.137688,12.725928
947,1663334763514,-0.06520442,2.1448665,12.934104
948,1663334763517,-0.012562319,2.1568305,13.1686
949,1663334763523,0.054436713,2.1807587,13.403396
950,1663334763524,0.09990034,2.178366,13.602
951,1663334763524,0.13848461,2.1711874,13.817654
952,1663334763526,0.20787647,2.123331,14.05215
953,1663334763529,0.27966115,2.1065812,14.214862
954,1663334763531,0.32512477,2.0563319,14.404194
955,1663334763533,0.39930227,2.0180469,14.583655
956,1663334763536,0.45673,2.0084755,14.739189
957,1663334763538,0.4543372,1.9845473,14.911772
958,1663334763540,0.5189434,1.9725832,15.033806
959,1663334763543,0.5620142,2.0084755,15.158233
960,1663334763545,0.59312093,1.9917258,15.270695
961,1663334763548,0.63140607,2.0324037,15.368801
962,1663334763550,0.66759753,2.0204396,15.431014
963,1663334763552,0.65054864,2.0563319,15.486348
964,1663334763555,0.67477596,2.0611176,15.524633
965,1663334763558,0.6963114,2.0563319,15.507884
966,1663334763559,0.7106683,2.0730817,15.493526
967,1663334763562,0.70588267,2.0587249,15.426229
968,1663334763565,0.715454,2.0611176,15.34248
969,1663334763567,0.66999036,2.0587249,15.234802
970,1663334763569,0.62183475,2.0515463,15.141482
971,1663334763572,0.60029936,2.0228324,14.981163
972,1663334763573,0.5476573,2.015654,14.834902
973,1663334763575,0.49980083,1.9869401,14.65544
974,1663334763579,0.4639085,1.9630119,14.440086
975,1663334763582,0.38255253,1.9414765,14.277076
976,1663334763583,0.30358937,1.9390837,14.0856495
977,1663334763585,0.24376881,1.9271195,13.891831
978,1663334763587,0.1576272,1.9223338,13.71207
979,1663334763589,0.13609178,1.9271195,13.539787
980,1663334763592,0.07597212,1.9414765,13.374682
981,1663334763596,0.025722843,1.9223338,13.219149
982,1663334763597,0.008973085,1.9438694,13.101602
983,1663334763599,0.0017946169,1.9582262,12.919746
984,1663334763601,-0.029312078,1.9677975,12.773785
985,1663334763604,-0.06999006,1.9821545,12.601202
986,1663334763607,-0.06999006,1.974976,12.460026
987,1663334763610,-0.10109676,1.9821545,12.314063
988,1663334763610,-0.14656039,1.9869401,12.144173
989,1663334763614,-0.21355942,1.9414765,11.993126
990,1663334763617,-0.23748764,1.934298,11.85195
991,1663334763618,-0.32362926,1.9534405,11.701201
992,1663334763621,-0.40259242,1.9199411,11.581561
993,1663334763624,-0.4456632,1.9582262,11.425728
994,1663334763624,-0.5297111,1.9319052,11.298908
995,1663334763627,-0.58953166,1.934298,11.117054
996,1663334763631,-0.67088765,1.9223338,10.942079
997,1663334763633,-0.73788667,1.9031913,10.750653
998,1663334763636,-0.77617186,1.9031913,10.552049
999,1663334763637,-0.8024929,1.8984057,10.350753
1000,1663334763640,-0.8766704,1.8984057,10.125827
1001,1663334763641,-0.9532407,1.8912272,9.84826
1002,1663334763645,-1.0130613,1.867299,9.570394
1003,1663334763647,-1.0372887,1.8816559,9.290433
1004,1663334763649,-1.1018949,1.8840487,9.010174
1005,1663334763651,-1.1210374,1.8550358,8.734999
1006,1663334763655,-1.1856437,1.8358932,8.447561
1007,1663334763656,-1.2119647,1.8550358,8.15803
1008,1663334763658,-1.2646067,1.89362,7.8490562
1009,1663334763663,-1.2957134,1.8888344,7.583453
1010,1663334763663,-1.3316058,1.9438694,7.327122
1011,1663334763666,-1.3627125,2.001297,7.056733
1012,1663334763669,-1.3986049,1.9773688,6.788438
1013,1663334763670,-1.4081762,2.0252252,6.5347986
1014,1663334763672,-1.4416757,2.0874386,6.259325
1015,1663334763675,-1.43689,2.1424735,6.0080786
1016,1663334763678,-1.4608182,2.1664019,5.782854
1017,1663334763680,-1.4488541,2.1807587,5.5794644
1018,1663334763682,-1.43689,2.2501507,5.3856454
1019,1663334763684,-1.422533,2.2621148,5.217849
1020,1663334763687,-1.4177474,2.2956142,5.0288157
1021,1663334763689,-1.3794622,2.3291137,4.8708897
1022,1663334763691,-1.3674982,2.367399,4.7174497
1023,1663334763694,-1.3603196,2.379363,4.60738
1024,1663334763696,-1.3435699,2.405684,4.487739
1025,1663334763699,-1.3052847,2.4538395,4.3872404
1026,1663334763701,-1.2789637,2.4993033,4.2771707
1027,1663334763704,-1.3004991,2.53041,4.210171
1028,1663334763705,-1.2957134,2.5591238,4.145266
1029,1663334763707,-1.2598212,2.5902305,4.095017
1030,1663334763711,-1.262214,2.6021945,4.08066
1031,1663334763713,-1.288535,2.6404798,4.066303
1032,1663334763715,-1.2669996,2.6548367,4.0184464
1033,1663334763718,-1.2646067,2.6979074,4.0064826
1034,1663334763720,-1.2454642,2.745764,3.999304
1035,1663334763722,-1.2191432,2.7912276,4.030411
1036,1663334763724,-1.2358929,2.8390841,4.0471606
1037,1663334763728,-1.1497513,2.8725836,4.06391
1038,1663334763729,-1.1497513,2.9180472,4.121338
1039,1663334763732,-1.1210374,2.9276185,4.2074795
1040,1663334763734,-1.0540384,2.9635108,4.31067
1041,1663334763737,-1.017847,3.0068808,4.4255257
1042,1663334763743,-0.9604192,3.0355947,4.5714874
1043,1663334763743,-0.90059865,3.0403802,4.743771
1044,1663334763744,-0.8647063,3.0523443,4.8804607
1045,1663334763746,-0.7713862,3.0762727,5.050351
1046,1663334763751,-0.75702924,3.0810583,5.2082777
1047,1663334763751,-0.6948159,3.054737,5.392824
1048,1663334763753,-0.6445666,3.042773,5.510072
1049,1663334763754,-0.58953166,2.9829526,5.691927
1050,1663334763757,-0.5392824,2.9706893,5.8307104
1051,1663334763760,-0.4962116,2.9371898,5.974579
1052,1663334763762,-0.4408776,2.9012976,6.1253266
1053,1663334763765,-0.35712877,2.8486555,6.259325
1054,1663334763767,-0.33559337,2.8079774,6.381359
1055,1663334763769,-0.29970104,2.774478,6.506085
1056,1663334763783,-0.23988047,2.784049,6.771688
1057,1663334763783,-0.18723837,2.7912276,6.862615
1058,1663334763783,-0.19202402,2.774478,6.9894347
1059,1663334763783,-0.21834506,2.8031917,7.111768
1060,1663334763784,-0.25902304,2.8223343,7.262516
1061,1663334763786,-0.24466611,2.8175488,7.4252276
1062,1663334763789,-0.25184458,2.82712,7.600203
1063,1663334763790,-0.24945176,2.8390841,7.760522
1064,1663334763795,-0.24945176,2.841477,7.9974113
1065,1663334763796,-0.23748764,2.824727,8.246564
1066,1663334763799,-0.21355942,2.8366911,8.524132
1067,1663334763799,-0.20398813,2.824727,8.787642
1068,1663334763803,-0.15373886,2.7672994,9.062816
1069,1663334763805,-0.15134603,2.7361927,9.340682
1070,1663334763807,-0.14895321,2.71705,9.6015
1071,1663334763810,-0.15373886,2.6165516,9.843474
1072,1663334763812,-0.1680958,2.5734808,10.116256
1073,1663334763815,-0.17527425,2.5208387,10.357931
1074,1663334763817,-0.16331014,2.4346972,10.597512
1075,1663334763819,-0.21834506,2.3745773,10.839188
1076,1663334763821,-0.19202402,2.3291137,11.057234
1077,1663334763823,-0.19680966,2.271686,11.296515
1078,1663334763826,-0.18484555,2.2118654,11.475977
1079,1663334763829,-0.18245272,2.1879373,11.643774
1080,1663334763831,-0.17766708,2.149652,11.8232355
1081,1663334763834,-0.16570297,2.1281166,11.964413
1082,1663334763836,-0.17288144,2.0850458,12.105888
1083,1663334763837,-0.2015953,2.1137598,12.239886
1084,1663334763840,-0.18005991,2.1161525,12.400206
1085,1663334763844,-0.16091733,2.120938,12.58206
1086,1663334763845,-0.12981063,2.1137598,12.773785
1087,1663334763847,-0.13938192,2.1352952,13.068102
1088,1663334763850,-0.05802595,2.178366,13.30529
1089,1663334763853,-0.0077766734,2.2262223,13.578073
1090,1663334763854,0.05922236,2.2525434,13.803296
1091,1663334763857,0.17916259,2.2788644,14.033008
1092,1663334763859,0.2844468,2.3003998,14.214862
1093,1663334763863,0.4112664,2.355435,14.418551
1094,1663334763865,0.5691927,2.417648,14.605191
1095,1663334763867,0.7704889,2.4658036,14.760725
1096,1663334763870,0.91884387,2.5495524,14.870794
1097,1663334763871,1.0456635,2.5806592,14.97877
1098,1663334763873,1.160519,2.6189444,15.072091
1099,1663334763877,1.2613167,2.6572297,15.203696
1100,1663334763889,1.3402798,2.7122645,15.270695
1101,1663334763889,1.4120644,2.7194428,15.32573
1102,1663334763889,1.4670994,2.71705,15.320944
1103,1663334763889,1.5197415,2.7242286,15.285052
1104,1663334763889,1.5436697,2.7266214,15.208482
1105,1663334763889,1.5747764,2.7146573,15.103197
1106,1663334763893,1.593919,2.7218359,14.962021
1107,1663334763895,1.5915262,2.7338,14.851652
1108,1663334763898,1.5628123,2.7625136,14.746367
1109,1663334763900,1.5005989,2.7696922,14.641084
1110,1663334763903,1.4503496,2.7816563,14.523835
1111,1663334763903,1.3977076,2.7768707,14.437694
1112,1663334763906,1.3211372,2.7984061,14.375481
1113,1663334763910,1.2326027,2.786442,14.25554
1114,1663334763912,1.174876,2.7912276,14.1263275
1115,1663334763915,1.0959128,2.7768707,14.044971
1116,1663334763916,1.0049855,2.7361927,13.910974
1117,1663334763919,0.94277215,2.7314072,13.798511
1118,1663334763920,0.88295156,2.7266214,13.685749
1119,1663334763927,0.80159557,2.7074788,13.563715
1120,1663334763927,0.77766734,2.7146573,13.420146
1121,1663334763929,0.7298109,2.7098715,13.30529
1122,1663334763931,0.6939186,2.7266214,13.18535
1123,1663334763933,0.6433702,2.7338,13.077673
1124,1663334763935,0.59551376,2.7290142,12.96521
1125,1663334763937,0.5524429,2.7601209,12.831212
1126,1663334763939,0.48305106,2.745764,12.706785
1127,1663334763943,0.43998027,2.7505496,12.541382
1128,1663334763944,0.39451665,2.7361927,12.397812
1129,1663334763946,0.31316066,2.7529426,12.242279
1130,1663334763949,0.26291138,2.705086,12.057733
1131,1663334763952,0.18873389,2.7242286,11.871092
1132,1663334763953,0.09750752,2.6955147,11.696416
1133,1663334763956,0.030508488,2.678765,11.509776
1134,1663334763958,-0.02213361,2.6668007,11.289337
1135,1663334763961,-0.11545369,2.6572297,11.100305
1136,1663334763964,-0.19680966,2.62373,10.884651
1137,1663334763966,-0.2853441,2.638087,10.657333
1138,1663334763968,-0.3379862,2.635694,10.439586
1139,1663334763971,-0.4456632,2.6141586,10.197612
1140,1663334763972,-0.53210396,2.638087,9.972687
1141,1663334763975,-0.5919245,2.635694,9.723534
1142,1663334763977,-0.6445666,2.6213372,9.441181
1143,1663334763980,-0.7091728,2.6428726,9.1681
1144,1663334763983,-0.7283154,2.635694,8.904889
1145,1663334763985,-0.79531443,2.638087,8.696415
1146,1663334763986,-0.8670991,2.6572297,8.442776
1147,1663334763989,-0.8862417,2.6715865,8.241778
1148,1663334763992,-0.9101699,2.6955147,8.030911
1149,1663334763995,-0.9699905,2.7146573,7.841878
1150,1663334763996,-0.9819546,2.7433712,7.6887374
1151,1663334763999,-0.9915259,2.745764,7.5089765
1152,1663334764001,-1.0202397,2.7433712,7.3438716
1153,1663334764003,-1.0253245,2.7696922,7.214659
1154,1663334764005,-1.0396814,2.7553353,7.068697
1155,1663334764008,-1.0636097,2.7672994,6.9391856
1156,1663334764013,-1.0827522,2.7816563,6.7812595
1157,1663334764013,-1.099502,2.7792635,6.6424756
1158,1663334764016,-1.1138589,2.7649066,6.518049
1159,1663334764018,-1.1210374,2.784049,6.3885374
1160,1663334764020,-1.1162517,2.757728,6.235397
1161,1663334764021,-1.1186446,2.7385855,6.1061845
1162,1663334764025,-1.1066805,2.8079774,5.979365
1163,1663334764027,-1.1138589,2.774478,5.837889
1164,1663334764030,-1.1042876,2.7936203,5.7230334
1165,1663334764032,-1.1018949,2.812763,5.6392846
1166,1663334764034,-1.1018949,2.8103702,5.536393
1167,1663334764037,-1.0827522,2.8438697,5.421538
1168,1663334764038,-1.0707881,2.8630123,5.368896
1169,1663334764044,-1.0731809,2.882155,5.3015976
1170,1663334764044,-1.0010972,2.8965118,5.241777
1171,1663334764047,-0.99631155,2.9419754,5.205885
1172,1663334764051,-0.9771689,2.9659038,5.15085
1173,1663334764052,-0.94606227,2.9997022,5.1269217
1174,1663334764053,-0.9101699,3.0212376,5.064708
1175,1663334764055,-0.8599206,3.0260234,5.055137
1176,1663334764059,-0.8575278,3.0595229,5.055137
1177,1663334764061,-0.83120674,3.0786655,5.052744
1178,1663334764063,-0.8240283,3.1145577,5.052744
1179,1663334764065,-0.8216355,3.1193435,5.0383873
1180,1663334764066,-0.7929216,3.1217363,5.043173
1181,1663334764069,-0.77377903,3.1097722,5.0120664
1182,1663334764071,-0.77377903,3.1265218,5.000102
1183,1663334764075,-0.7833503,3.138486,4.976174
1184,1663334764077,-0.7857431,3.1193435,4.894818
1185,1663334764080,-0.7498508,3.1360931,4.8397827
1186,1663334764085,-0.7402795,3.1337004,4.7823553
1187,1663334764085,-0.7187441,3.152843,4.7078786
1188,1663334764086,-0.7115656,3.1695926,4.671986
1189,1663334764090,-0.7115656,3.164807,4.6002016
1190,1663334764091,-0.69242305,3.1671999,4.564309
1191,1663334764093,-0.68524456,3.193521,4.5355954
1192,1663334764097,-0.67806613,3.2246277,4.5332026
1193,1663334764098,-0.68524456,3.248556,4.549952
1194,1663334764100,-0.7283154,3.2389846,4.5762734
1195,1663334764103,-0.70678,3.2653055,4.636094
1196,1663334764104,-0.7187441,3.2629128,4.6935215
1197,1663334764106,-0.7115656,3.2629128,4.7485566
1198,1663334764110,-0.7211369,3.3083763,4.7919264
1199,1663334764113,-0.75224364,3.3035908,4.85414
1200,1663334764115,-0.7259226,3.3107693,4.9115677
1201,1663334764118,-0.7043872,3.3179476,4.9929237
1202,1663334764119,-0.6541379,3.313162,5.0336018
1203,1663334764122,-0.64217377,3.301198,5.0742793
1204,1663334764124,-0.63978094,3.2461631,5.1604214
1205,1663334764127,-0.6230312,3.2126634,5.2250276
1206,1663334764130,-0.6445666,3.203092,5.3039904
1207,1663334764132,-0.65653074,3.1360931,5.378467
1208,1663334764133,-0.64935225,3.0786655,5.4574304
1209,1663334764137,-0.69242305,2.9949167,5.514858
1210,1663334764137,-0.666102,2.906083,5.608178
1211,1663334764141,-0.6948159,2.8677979,5.6823554
1212,1663334764143,-0.6828518,2.7888348,5.7541404
1213,1663334764145,-0.70199436,2.7242286,5.813961
1214,1663334764148,-0.67088765,2.6596224,5.933901
1215,1663334764151,-0.59671015,2.6021945,6.0248284
1216,1663334764152,-0.5273183,2.5399811,6.1420765
1217,1663334764154,-0.45762733,2.4586253,6.228218
1218,1663334764157,-0.41455653,2.405684,6.3598237
1219,1663334764159,-0.3906283,2.353042,6.5228343
1220,1663334764162,-0.3475575,2.2788644,6.6831536
1221,1663334764164,-0.3260221,2.2286153,6.862615
1222,1663334764166,-0.31405798,2.2142582,7.030412
1223,1663334764173,-0.2973082,2.1975086,7.2361946
1224,1663334764173,-0.24945176,2.1424735,7.4395847
1225,1663334764173,-0.24466611,2.1424735,7.681559
1226,1663334764176,-0.20398813,2.120938,7.923234
1227,1663334764182,-0.22073789,2.082653,8.160422
1228,1663334764182,-0.2015953,2.0635104,8.414062
1229,1663334764182,-0.1680958,2.0515463,8.653344
1230,1663334764187,-0.13220344,2.053939,8.909675
1231,1663334764187,-0.07238288,2.0347965,9.153743
1232,1663334764190,-0.06999006,2.0611176,9.457931
1233,1663334764192,-0.029312078,2.0371895,9.7450695
1234,1663334764195,0.05922236,2.082653,10.068399
1235,1663334764197,0.102592275,2.0994027,10.427622
1236,1663334764199,0.18634106,2.1400807,10.808081
1237,1663334764202,0.3059822,2.1544378,11.227124
1238,1663334764203,0.40408793,2.1999013,11.636596
1239,1663334764206,0.5189434,2.2477577,12.062518
1240,1663334764211,0.63140607,2.257329,12.433704
1241,1663334764211,0.77766734,2.2645075,12.8264265
1242,1663334764214,0.9403793,2.2836502,13.202399
1243,1663334764216,1.0432707,2.2812574,13.573286
1244,1663334764218,1.18684,2.2525434,13.954044
1245,1663334764220,1.3331013,2.245365,14.327623
1246,1663334764224,1.5029917,2.259722,14.68894
1247,1663334764225,1.6250256,2.2405794,14.995521
1248,1663334764228,1.7856439,2.2429721,15.292231
1249,1663334764230,1.9387846,2.257329,15.541383
1250,1663334764234,2.0368903,2.2286153,15.773487
1251,1663334764235,2.1517458,2.2334008,15.972091
1252,1663334764237,2.2498515,2.2286153,16.11596
1253,1663334764240,2.355435,2.219044,16.247564
1254,1663334764243,2.4678974,2.219044,16.340885
1255,1663334764244,2.5492535,2.20708,16.400705
1256,1663334764247,2.623431,2.1879373,16.45574
1257,1663334764249,2.6593232,2.1831515,16.484455
1258,1663334764252,2.7071798,2.1711874,16.467705
1259,1663334764253,2.69043,2.1711874,16.441383
1260,1663334764257,2.6880372,2.178366,16.383955
1261,1663334764264,2.6665018,2.1975086,16.312172
1262,1663334764264,2.5995028,2.1951156,16.178173
1263,1663334764264,2.5588248,2.2525434,15.993926
1264,1663334764267,2.4631119,2.2812574,15.862021
1265,1663334764267,2.39372,2.3147569,15.70888
1266,1663334764270,2.3192434,2.3578277,15.541383
1267,1663334764289,2.1445673,2.3961127,15.230017
1268,1663334764289,2.0081763,2.3817558,15.069698
1269,1663334764289,1.9100707,2.39372,14.916557
1270,1663334764290,1.8287147,2.3578277,14.7559395
1271,1663334764290,1.715953,2.3626132,14.62912
1272,1663334764290,1.6298113,2.326721,14.475979
1273,1663334764290,1.5293127,2.2956142,14.361123
1274,1663334764291,1.4479568,2.2788644,14.219647
1275,1663334764293,1.364208,2.2118654,14.109578
1276,1663334764296,1.3378869,2.1448665,13.963615
1277,1663334764299,1.2179468,2.1161525,13.769797
1278,1663334764301,1.1557333,2.0611176,13.609179
1279,1663334764303,1.0719845,2.0084755,13.427324
1280,1663334764305,0.9762716,1.9869401,13.2311125
1281,1663334764308,0.91166544,1.9414765,13.04178
1282,1663334764310,0.7920243,1.9127626,12.8264265
1283,1663334764313,0.7178468,1.9007984,12.594024
1284,1663334764315,0.64576304,1.8864416,12.347563
1285,1663334764318,0.5691927,1.8984057,12.170494
1286,1663334764319,0.4854439,1.89362,11.981162
1287,1663334764322,0.42083767,1.9127626,11.794522
1288,1663334764324,0.33708888,1.9031913,11.617453
1289,1663334764327,0.2844468,1.9319052,11.397015
1290,1663334764330,0.19351953,1.9295124,11.260623
1291,1663334764331,0.13848461,1.9247267,11.073983
1292,1663334764335,0.07836494,1.9462621,10.942079
1293,1663334764336,0.047258247,1.9295124,10.757832
1294,1663334764339,0.008973085,1.9175483,10.57837
1295,1663334764342,-0.0317049,1.9151554,10.389337
1296,1663334764343,-0.081954174,1.9247267,10.240683
1297,1663334764346,-0.093918286,1.8960128,10.101899
1298,1663334764349,-0.12023934,1.8768703,9.967901
1299,1663334764351,-0.14656039,1.8984057,9.816854
1300,1663334764352,-0.17048861,1.8744774,9.673285
1301,1663334764355,-0.17288144,1.8864416,9.50818
1302,1663334764357,-0.20398813,1.8744774,9.374182
1303,1663334764361,-0.20398813,1.8912272,9.218349
1304,1663334764363,-0.2542374,1.9055841,9.096315
1305,1663334764366,-0.3068795,1.9175483,8.943174
1306,1663334764369,-0.31166515,1.8984057,8.837891
1307,1663334764369,-0.35234314,1.9319052,8.670094
1308,1663334764372,-0.36430725,1.9582262,8.519346
1309,1663334764374,-0.41694933,1.9965113,8.335098
1310,1663334764378,-0.4651049,2.0060828,8.15803
1311,1663334764379,-0.51535416,2.015654,7.9854474
1312,1663334764381,-0.5727819,2.0347965,7.841878
1313,1663334764384,-0.61106706,2.068296,7.6552377
1314,1663334764386,-0.666102,2.108974,7.530512
1315,1663334764388,-0.6828518,2.1257238,7.379764
1316,1663334764391,-0.733101,2.149652,7.219445
1317,1663334764393,-0.7618149,2.20708,7.066304
1318,1663334764397,-0.7689934,2.2477577,6.946364
1319,1663334764398,-0.75702924,2.2812574,6.754938
1320,1663334764400,-0.7809575,2.3075783,6.6017976
1321,1663334764402,-0.7713862,2.3721845,6.463014
1322,1663334764404,-0.7642077,2.4323041,6.316753
1323,1663334764407,-0.7402795,2.4538395,6.168398
1324,1663334764411,-0.7187441,2.5112674,6.0631137
1325,1663334764412,-0.66370916,2.5232315,5.919544
1326,1663334764414,-0.61824554,2.585445,5.816354
1327,1663334764418,-0.58474606,2.585445,5.727819
1328,1663334764419,-0.58953166,2.6309085,5.5890355
1329,1663334764422,-0.6014958,2.6428726,5.4933224
1330,1663334764424,-0.60388863,2.678765,5.3832526
1331,1663334764427,-0.58713883,2.7003005,5.270491
1332,1663334764430,-0.6326025,2.6835506,5.1269217
1333,1663334764431,-0.60388863,2.7290142,5.0288157
1334,1663334764434,-0.6302097,2.7672994,4.921139
1335,1663334764435,-0.6134599,2.757728,4.8589253
1336,1663334764439,-0.6206384,2.786442,4.7799625
1337,1663334764440,-0.6134599,2.7960134,4.7174497
1338,1663334764443,-0.5727819,2.7936203,4.6528435
1339,1663334764445,-0.5512465,2.82712,4.631308
1340,1663334764448,-0.5344968,2.8151557,4.664808
1341,1663334764450,-0.51535416,2.8486555,4.703093
1342,1663334764453,-0.46989053,2.8677979,4.753342
1343,1663334764454,-0.42652065,2.8701909,4.7991047
1344,1663334764457,-0.4121637,2.879762,4.851747
1345,1663334764460,-0.38584265,2.9276185,4.8852468
1346,1663334764462,-0.3499503,2.9443684,4.9546385
1347,1663334764464,-0.35234314,2.9276185,5.0216374
1348,1663334764465,-0.3260221,2.9108686,5.05753
1349,1663334764469,-0.3044867,2.9084759,5.110172
1350,1663334764471,-0.29491538,2.8989046,5.1556354
1351,1663334764473,-0.3068795,2.8989046,5.256134
1352,1663334764476,-0.26620153,2.882155,5.340182
1353,1663334764478,-0.21595225,2.8582265,5.4646087
1354,1663334764481,-0.21595225,2.8558338,5.58425
1355,1663334764482,-0.21595225,2.8462625,5.703891
1356,1663334764486,-0.22791636,2.8630123,5.837889
1357,1663334764491,-0.22073789,2.8630123,5.9530435
1358,1663334764491,-0.23748764,2.8510482,6.067899
1359,1663334764492,-0.26141587,2.8630123,6.2569323
1360,1663334764494,-0.23988047,2.8319056,6.417251
1361,1663334764497,-0.24945176,2.8151557,6.597012
1362,1663334764499,-0.28055847,2.8031917,6.7405815
1363,1663334764501,-0.27098715,2.800799,6.936793
1364,1663334764504,-0.26620153,2.7792635,7.16441
1365,1663334764506,-0.29970104,2.7625136,7.410871
1366,1663334764509,-0.24945176,2.7433712,7.679166
1367,1663334764513,-0.26859435,2.6979074,7.9184484
1368,1663334764513,-0.28295127,2.6691937,8.1891365
1369,1663334764517,-0.2638087,2.6404798,8.464311
1370,1663334764519,-0.22552353,2.5950162,8.725428
1371,1663334764522,-0.20638095,2.5615165,9.012567
1372,1663334764523,-0.17288144,2.5136602,9.259326
1373,1663334764526,-0.13459627,2.4586253,9.496216
1374,1663334764528,-0.11306087,2.420041,9.776176
1375,1663334764530,-0.05802595,2.367399,10.058828
1376,1663334764533,0.01375873,2.3578277,10.312468
1377,1663334764534,0.09032906,2.3434706,10.57837
1378,1663334764537,0.12412767,2.3338995,10.872687
1379,1663334764539,0.200698,2.353042,11.167303
1380,1663334764551,0.2940181,2.350649,11.499906
1381,1663334764552,0.41605204,2.3865414,11.828021
1382,1663334764552,0.5093721,2.4032912,12.172887
1383,1663334764552,0.60029936,2.4128625,12.491133
1384,1663334764552,0.6867401,2.408077,12.7857485
1385,1663334764555,0.7896315,2.4032912,13.080066
1386,1663334764556,0.8662018,2.3961127,13.377075
1387,1663334764559,0.9236295,2.3913271,13.604393
1388,1663334764561,0.9882358,2.4275186,13.740784
1389,1663334764565,1.0073783,2.4394827,13.800903
1390,1663334764565,1.0719845,2.4921248,13.827225
1391,1663334764572,1.0648061,2.5208387,13.793725
1392,1663334764572,1.0648061,2.5950162,13.71207
1393,1663334764573,1.0863415,2.6596224,13.652249
1394,1663334764575,1.0935199,2.7194428,13.582858
1395,1663334764578,1.1270195,2.8151557,13.506288
1396,1663334764581,1.1246266,2.8917263,13.46561
1397,1663334764582,1.1844472,2.9276185,13.41536
1398,1663334764584,1.2227324,3.0116663,13.424932
1399,1663334764587,1.2517453,3.0523443,13.420146
1400,1663334764590,1.3235301,3.1313076,13.475181
1401,1663334764592,1.3713865,3.1624143,13.484752
1402,1663334764594,1.4790635,3.1695926,13.546966
1403,1663334764598,1.5245271,3.1815567,13.587644
1404,1663334764599,1.6154544,3.179164,13.580465
1405,1663334764600,1.7183458,3.1552358,13.546966
1406,1663334764604,1.7614166,3.1337004,13.472788
1407,1663334764605,1.8071793,3.1073792,13.391432
1408,1663334764608,1.8358932,3.0403802,13.286148
1409,1663334764610,1.7904296,3.0068808,13.137494
1410,1663334764614,1.7590238,2.9443684,13.01546
1411,1663334764614,1.6944175,2.9084759,12.87189
1412,1663334764617,1.634597,2.8366911,12.711571
1413,1663334764620,1.52692,2.8175488,12.579667
1414,1663334764622,1.4599209,2.8031917,12.448062
1415,1663334764624,1.3618152,2.8079774,12.323635
1416,1663334764627,1.2852448,2.7960134,12.225529
1417,1663334764631,1.2493526,2.8031917,12.113067
1418,1663334764631,1.2059826,2.7960134,12.019447
1419,1663334764634,1.1964114,2.784049,11.918949
1420,1663334764637,1.1964114,2.7672994,11.868699
1421,1663334764639,1.1772687,2.7601209,11.8232355
1422,1663334764642,1.1724831,2.7314072,11.768201
1423,1663334764644,1.1533405,2.7242286,11.744272
1424,1663334764646,1.1318051,2.7146573,11.694023
1425,1663334764647,1.119841,2.7266214,11.641381
1426,1663334764651,1.1318051,2.7338,11.562418
1427,1663334764653,1.1006985,2.7266214,11.514562
1428,1663334764655,1.1006985,2.7194428,11.432906
1429,1663334764660,1.0887343,2.7361927,11.363515
1430,1663334764660,1.0959128,2.7266214,11.270195
1431,1663334764665,1.1030912,2.7361927,11.1936245
1432,1663334764665,1.079163,2.774478,11.126625
1433,1663334764666,1.0552348,2.8055844,11.097912
1434,1663334764670,1.0576276,2.8390841,11.004591
1435,1663334764673,1.0719845,2.9012976,10.939686
1436,1663334764675,1.0719845,2.906083,10.903793
1437,1663334764676,1.1030912,2.9276185,10.774581
1438,1663334764679,1.0911272,2.9682965,10.654941
1439,1663334764682,1.0863415,2.9997022,10.489836
1440,1663334764687,1.0408778,3.0092735,10.310075
1441,1663334764687,1.0408778,3.0379875,10.094721
1442,1663334764690,1.0336994,3.0619156,9.927223
1443,1663334764690,0.971486,3.0738797,9.680463
1444,1663334764693,0.90448695,3.0643084,9.467502
1445,1663334764696,0.83748794,3.0810583,9.2641115
1446,1663334764698,0.7848458,3.0762727,9.084352
1447,1663334764699,0.6987042,3.071487,8.912068
1448,1663334764704,0.64576304,3.071487,8.7469635
1449,1663334764705,0.5811568,3.042773,8.595916
1450,1663334764707,0.4758726,3.0092735,8.4451685
1451,1663334764710,0.42801616,2.9949167,8.299206
1452,1663334764713,0.3394817,2.975475,8.093124
1453,1663334764714,0.25812575,2.9706893,7.975876
1454,1663334764717,0.17676978,2.9587252,7.8227353
1455,1663334764719,0.09032906,2.961118,7.6576304
1456,1663334764722,0.035294134,2.9036903,7.4802628
1457,1663334764724,-0.034097724,2.9132617,7.339086
1458,1663334764726,-0.06520442,2.8965118,7.1763744
1459,1663334764729,-0.1274178,2.8893332,7.0085773
1460,1663334764731,-0.15134603,2.894119,6.862615
1461,1663334764733,-0.18723837,2.879762,6.745367
1462,1663334764736,-0.24705894,2.9012976,6.640083
1463,1663334764739,-0.28773692,2.8965118,6.503692
1464,1663334764742,-0.34037903,2.8869405,6.3861446
1465,1663334764745,-0.36670008,2.8606195,6.2736816
1466,1663334764746,-0.4001996,2.8749764,6.1851473
1467,1663334764749,-0.421735,2.865405,6.0655065
1468,1663334764750,-0.4528417,2.8893332,5.9434724
1469,1663334764753,-0.49860442,2.8510482,5.8474603
1470,1663334764755,-0.53210396,2.8462625,5.727819
1471,1663334764757,-0.5632106,2.8103702,5.6440706
1472,1663334764759,-0.6134599,2.7888348,5.58425
1473,1663334764762,-0.61106706,2.7912276,5.4837513
1474,1663334764763,-0.64217377,2.786442,5.4023952
1475,1663334764766,-0.64217377,2.7649066,5.323133
1476,1663334764770,-0.65653074,2.7361927,5.258527
1477,1663334764771,-0.6828518,2.7361927,5.174778
1478,1663334765283,3.3032916,2.4128625,16.156637
1479,1663334765283,3.499802,2.5232315,16.216457
1480,1663334765283,3.6338003,2.6213372,16.237993
1481,1663334765283,3.7366917,2.7314072,16.223637
1482,1663334765283,3.8635113,2.82712,16.154245
1483,1663334765286,3.920939,2.9108686,16.041782
1484,1663334765288,3.9472601,2.9973094,15.866807
1485,1663334765290,3.9472601,3.0595229,15.670595
1486,1663334765293,3.9520457,3.0930223,15.452848
1487,1663334765295,3.8563328,3.1169505,15.184553
1488,1663334765299,3.7941194,3.1265218,14.940486
1489,1663334765301,3.705585,3.0978081,14.703297
1490,1663334765303,3.5548372,3.0858438,14.456836
1491,1663334765305,3.434897,3.0403802,14.205291
1492,1663334765307,3.2793634,2.9706893,13.977973
1493,1663334765310,3.121437,2.9132617,13.788939
1494,1663334765311,2.9635108,2.8582265,13.590036
1495,1663334765314,2.7957141,2.7768707,13.468002
1496,1663334765318,2.6545377,2.7338,13.3435755
1497,1663334765320,2.513361,2.652444,13.259827
1498,1663334765322,2.3961127,2.6117659,13.139887
1499,1663334765324,2.2761726,2.5519454,13.048959
1500,1663334765331,2.1589243,2.5208387,13.010674
1501,1663334765331,2.0727825,2.53041,12.962817
1502,1663334765331,1.9914266,2.4586253,12.948461
1503,1663334765333,1.9531415,2.4705894,12.90539
1504,1663334765336,1.9076779,2.4705894,12.891033
1505,1663334765338,1.8861425,2.4418755,12.862319
1506,1663334765341,1.8406788,2.4538395,12.809677
1507,1663334765342,1.8239291,2.3985057,12.761821
1508,1663334765345,1.8095721,2.3578277,12.723536
1509,1663334765348,1.7709879,2.3578277,12.6828575
1510,1663334765351,1.7446668,2.3338995,12.617952
1511,1663334765353,1.7039888,2.3147569,12.553346
1512,1663334765355,1.6992031,2.271686,12.4935255
1513,1663334765356,1.6274185,2.2429721,12.407384
1514,1663334765360,1.5963118,2.2046869,12.302099
1515,1663334765362,1.5221343,2.1735802,12.148959
1516,1663334765364,1.512563,2.1711874,12.036197
1517,1663334765366,1.4599209,2.1305094,11.904592
1518,1663334765370,1.3977076,2.1281166,11.789736
1519,1663334765371,1.3761721,2.1161525,11.636596
1520,1663334765374,1.2756736,2.0587249,11.459228
1521,1663334765376,1.270888,2.0491536,11.282159
1522,1663334765384,1.2227324,2.0371895,11.140983
1523,1663334765384,1.134198,2.0371895,10.951949
1524,1663334765392,1.0983056,2.0324037,10.767403
1525,1663334765392,0.98584294,2.0443678,10.54487
1526,1663334765392,0.93320084,2.0515463,10.319646
1527,1663334765392,0.89730847,2.070689,10.089935
1528,1663334765392,0.83030945,2.0850458,9.898509
1529,1663334765394,0.7704889,2.0754745,9.690035
1530,1663334765398,0.7082755,2.070689,9.481859
1531,1663334765400,0.64576304,2.068296,9.323933
1532,1663334765401,0.59790653,2.0587249,9.139386
1533,1663334765404,0.5237291,2.0467606,8.96471
1534,1663334765412,0.49022955,2.0850458,8.797213
1535,1663334765412,0.43040898,2.0850458,8.653344
1536,1663334765412,0.37537405,2.0802603,8.519346
1537,1663334765413,0.33708888,2.0730817,8.36142
1538,1663334765417,0.2748755,2.0994027,8.213064
1539,1663334765419,0.2318047,2.108974,8.0715885
1540,1663334765420,0.18155542,2.1257238,7.906484
1541,1663334765423,0.13848461,2.1520448,7.750951
1542,1663334765426,0.1265205,2.1975086,7.583453
1543,1663334765432,0.0951147,2.2334008,7.413264
1544,1663334765433,0.047258247,2.257329,7.260123
1545,1663334765433,0.0041874396,2.298007,7.0878396
1546,1663334765435,0.016151553,2.3315065,6.920043
1547,1663334765437,-0.024526432,2.367399,6.754938
1548,1663334765439,-0.048454657,2.4008985,6.582655
1549,1663334765442,-0.050847482,2.43709,6.443572
1550,1663334765444,-0.07477571,2.461018,6.2736816
1551,1663334765447,-0.1058824,2.4658036,6.1325054
1552,1663334765449,-0.12502499,2.477768,5.9841504
1553,1663334765452,-0.15613168,2.5064816,5.823532
1554,1663334765454,-0.18484555,2.5351956,5.6727843
1555,1663334765457,-0.21355942,2.5208387,5.529215
1556,1663334765459,-0.25902304,2.5208387,5.419145
1557,1663334765461,-0.26141587,2.528017,5.280062
1558,1663334765464,-0.32362926,2.5471597,5.122136
1559,1663334765465,-0.35712877,2.5328028,5.0359945
1560,1663334765469,-0.381057,2.5758736,4.8972106
1561,1663334765470,-0.40498522,2.5519454,4.825426
1562,1663334765473,-0.45044887,2.53041,4.729414
1563,1663334765475,-0.50099725,2.5375884,4.6432724
1564,1663334765477,-0.51535416,2.5399811,4.549952
1565,1663334765480,-0.56799626,2.528017,4.473382
1566,1663334765483,-0.58474606,2.5184457,4.442275
1567,1663334765485,-0.6014958,2.516053,4.4255257
1568,1663334765487,-0.58713883,2.4993033,4.3465624
1569,1663334765489,-0.61824554,2.4993033,4.3178487
1570,1663334765492,-0.62781686,2.501696,4.348955
1571,1663334765494,-0.61106706,2.516053,4.377669
1572,1663334765498,-0.60628146,2.5232315,4.4231324
1573,1663334765499,-0.58235323,2.528017,4.516453
1574,1663334765501,-0.57517475,2.5184457,4.6121655
1575,1663334765504,-0.52253264,2.568695,4.7365923
1576,1663334765506,-0.49381876,2.5495524,4.8732824
1577,1663334765510,-0.47706902,2.556731,4.9977093
1578,1663334765510,-0.42412782,2.5328028,5.1436715
1579,1663334765513,-0.3714857,2.5375884,5.299205
1580,1663334765515,-0.3499503,2.53041,5.4311094
1581,1663334765517,-0.30927232,2.489732,5.5675
1582,1663334765520,-0.25663024,2.4969103,5.684748
1583,1663334765523,-0.18005991,2.475375,5.7924256
1584,1663334765524,-0.1058824,2.4442682,5.873781
1585,1663334765527,-0.081954174,2.4128625,5.9410796
1586,1663334765529,-0.0317049,2.4008985,6.046364
1587,1663334765532,-0.03888337,2.350649,6.1444693
1588,1663334765535,-0.012562319,2.3745773,6.2377896
1589,1663334765537,-0.012562319,2.3243282,6.3215384
1590,1663334765539,-0.012562319,2.3147569,6.4028945
1591,1663334765541,-0.012562319,2.3195424,6.4965134
1592,1663334765543,0.0017946169,2.3171496,6.6424756
1593,1663334765547,0.008973085,2.3458636,6.7429743
1594,1663334765549,0.032901313,2.338685,6.8865438
1595,1663334765552,0.035294134,2.365006,7.083054
1596,1663334765553,0.071186475,2.4152553,7.315158
1597,1663334765556,0.11216356,2.408077,7.5735826
1598,1663334765557,0.18873389,2.4104698,7.8083787
1599,1663334765560,0.24137598,2.3697917,8.090732
1600,1663334765564,0.32512477,2.3961127,8.368598
1601,1663334765564,0.38494533,2.3889344,8.631808
1602,1663334765567,0.43998027,2.3626132,8.935996
1603,1663334765569,0.54287165,2.353042,9.206385
1604,1663334765572,0.6146563,2.355435,9.47468
1605,1663334765574,0.7322037,2.338685,9.725926
1606,1663334765576,0.8135597,2.3482563,9.996614
1607,1663334765579,0.9451649,2.3458636,10.274182
1608,1663334765582,1.0504491,2.3697917,10.542478
1609,1663334765583,1.1940185,2.420041,10.815259
1610,1663334765586,1.3091731,2.4346972,11.08834
1611,1663334765589,1.4527425,2.4681966,11.327622
1612,1663334765590,1.5891334,2.4586253,11.562418
1613,1663334765594,1.6920247,2.501696,11.811272
1614,1663334765596,1.8406788,2.5208387,12.019447
1615,1663334765597,1.96032,2.5495524,12.2279215
1616,1663334765600,2.1302104,2.597409,12.448062
1617,1663334765604,2.2498515,2.5926232,12.625131
1618,1663334765606,2.353042,2.585445,12.809677
1619,1663334765606,2.4415765,2.5926232,12.977175
1620,1663334765609,2.554039,2.5519454,13.144672
1621,1663334765615,2.611467,2.5543382,13.286148
1622,1663334765615,2.6736803,2.5208387,13.408182
1623,1663334765617,2.6712873,2.501696,13.558929
1624,1663334765619,2.6880372,2.475375,13.690535
1625,1663334765621,2.6736803,2.4681966,13.798511
1626,1663334765623,2.6377878,2.43709,13.910974
1627,1663334765625,2.635395,2.4346972,14.023437
1628,1663334765628,2.6018956,2.4152553,14.104793
1629,1663334765633,2.5779674,2.4032912,14.174184
1630,1663334765634,2.568396,2.405684,14.257933
1631,1663334765636,2.5396821,2.43709,14.344374
1632,1663334765639,2.5396821,2.4586253,14.418551
1633,1663334765641,2.5396821,2.4538395,14.521442
1634,1663334765642,2.5253253,2.489732,14.641084
1635,1663334765645,2.5109682,2.516053,14.74876
1636,1663334765648,2.5492535,2.5471597,14.834902
1637,1663334765650,2.5444677,2.5902305,14.95245
1638,1663334765652,2.5516462,2.609373,15.021841
1639,1663334765655,2.5612175,2.6165516,15.096019
1640,1663334765656,2.5516462,2.6213372,15.117555
1641,1663334765660,2.5731816,2.6021945,15.10559
1642,1663334765662,2.566003,2.597409,15.079269
1643,1663334765665,2.5444677,2.568695,15.033806
1644,1663334765667,2.4918256,2.5423741,14.9452715
1645,1663334765669,2.4511478,2.4969103,14.837295
1646,1663334765671,2.367399,2.4346972,14.739189
1647,1663334765673,2.2881367,2.39372,14.607584
1648,1663334765676,2.2235305,2.367399,14.473586
1649,1663334765679,2.120639,2.3219352,14.28904
1650,1663334765680,2.0105693,2.2836502,14.143077
1651,1663334765683,1.8741783,2.2812574,13.97558
1652,1663334765686,1.8191434,2.2621148,13.841581
1653,1663334765688,1.7255242,2.2334008,13.709678
1654,1663334765689,1.6513467,2.219044,13.563715
1655,1663334765692,1.5915262,2.219044,13.41536
1656,1663334765695,1.5580267,2.1927228,13.314861
1657,1663334765697,1.5197415,2.1807587,13.180565
1658,1663334765700,1.4742779,2.1975086,13.060924
1659,1663334765702,1.4383855,2.1735802,12.914961
1660,1663334765705,1.3857434,2.149652,12.74507
1661,1663334765707,1.3331013,2.1185453,12.560524
1662,1663334765709,1.3091731,2.0802603,12.352348
1663,1663334765711,1.2445669,2.09701,12.113067
1664,1663334765713,1.2107682,2.0754745,11.890235
1665,1663334765715,1.1509477,2.0874386,11.667703
1666,1663334765718,1.1006985,2.0587249,11.380264
1667,1663334765721,1.0073783,2.1065812,11.150554
1668,1663334765722,0.94755775,2.0898316,10.87508
1669,1663334765724,0.9212367,2.0802603,10.623834
1670,1663334765728,0.8350951,2.1065812,10.365109
1671,1663334765730,0.7704889,2.1448665,10.104292
1672,1663334765733,0.715454,2.1544378,9.87458
1673,1663334765736,0.6723832,2.1759732,9.634999
1674,1663334765738,0.6242276,2.178366,9.390931
1675,1663334765741,0.5596214,2.202294,9.110672
1676,1663334765742,0.47826543,2.2214367,8.895318
1677,1663334765745,0.4423731,2.2238295,8.627023
1678,1663334765747,0.3801597,2.1975086,8.411669
1679,1663334765750,0.33708888,2.2405794,8.165208
1680,1663334765751,0.2844468,2.2740788,7.966305
1681,1663334765754,0.24616162,2.2788644,7.7820573
1682,1663334765756,0.19830517,2.271686,7.5520473
1683,1663334765758,0.15284155,2.2908285,7.3749785
1684,1663334765762,0.11216356,2.3003998,7.173981
1685,1663334765769,0.068793654,2.3051856,6.991828
1686,1663334765769,0.0424726,2.3410778,6.8410797
1687,1663334766287,2.1230319,1.8263218,12.3810625
1688,1663334766287,2.2929223,1.8263218,12.333206
1689,1663334766287,2.4248266,1.8625133,12.2374935
1690,1663334766287,2.5875385,1.9151554,12.165709
1691,1663334766287,2.6736803,1.9414765,12.139387
1692,1663334766287,2.7406793,2.013261,12.127423
1693,1663334766290,2.8196423,2.053939,12.172887
1694,1663334766292,2.8818557,2.0563319,12.261421
1695,1663334766295,2.9371898,2.1161525,12.364313
1696,1663334766297,3.0209386,2.1257238,12.503097
1697,1663334766300,3.109473,2.1568305,12.654143
1698,1663334766302,3.1812577,2.1807587,12.847962
1699,1663334766304,3.2530425,2.161616,13.01546
1700,1663334766307,3.3367913,2.1544378,13.180565
1701,1663334766309,3.406183,2.1592233,13.312469
1702,1663334766311,3.4806597,2.1520448,13.448859
1703,1663334766314,3.5333018,2.1400807,13.573286
1704,1663334766317,3.585944,2.1472592,13.6809635
1705,1663334766322,3.5883367,2.1568305,13.810475
1706,1663334766322,3.5811582,2.1352952,13.927723
1707,1663334766323,3.5787654,2.1424735,14.037793
1708,1663334766328,3.5524442,2.1281166,14.164613
1709,1663334766328,3.4974093,2.1017957,14.318052
1710,1663334766330,3.4516466,2.0874386,14.466408
1711,1663334766333,3.3918262,2.0754745,14.609977
1712,1663334766334,3.3367913,2.0730817,14.734404
1713,1663334766337,3.3152559,2.041975,14.803796
1714,1663334766339,3.2362926,2.0180469,14.868402
1715,1663334766342,3.1525438,1.9677975,14.902201
1716,1663334766343,3.0903304,1.9031913,14.923736
1717,1663334766351,2.989832,1.8526429,14.928521
1718,1663334766351,2.934797,1.7736797,14.914165
1719,1663334766351,2.8316064,1.7258233,14.856438
1720,1663334766353,2.7646074,1.6660028,14.784653
1721,1663334766355,2.6593232,1.5870396,14.739189
1722,1663334766358,2.5468607,1.5391831,14.665011
1723,1663334766360,2.4248266,1.4937196,14.559728
1724,1663334766364,2.3216362,1.4362918,14.454443
1725,1663334766366,2.1924238,1.3740784,14.33241
1726,1663334766368,2.1158533,1.3692927,14.138291
1727,1663334766370,2.0057836,1.3549358,13.980366
1728,1663334766373,1.9292133,1.3070793,13.808083
1729,1663334766374,1.8358932,1.3094722,13.621143
1730,1663334766378,1.7904296,1.3190435,13.401003
1731,1663334766380,1.7614166,1.3238292,13.130315
1732,1663334766382,1.675275,1.3453646,12.926926
1733,1663334766388,1.6657037,1.3334004,12.737892
1734,1663334766388,1.62024,1.3549358,12.534204
1735,1663334766389,1.6010975,1.3573287,12.330813
1736,1663334766393,1.538884,1.3286148,12.077174
1737,1663334766395,1.5053846,1.3357933,11.863914
1738,1663334766397,1.4599209,1.3190435,11.627025
1739,1663334766400,1.4312071,1.3094722,11.380264
1740,1663334766401,1.390529,1.3190435,11.140983
1741,1663334766402,1.3283156,1.2900305,10.910973
1742,1663334766405,1.2732807,1.282852,10.669297
1743,1663334766408,1.23021,1.2804592,10.425229
1744,1663334766410,1.1940185,1.2780664,10.219148
1745,1663334766412,1.1509477,1.3046865,9.996614
1746,1663334766415,1.0983056,1.3166506,9.795319
1747,1663334766417,1.0504491,1.3166506,9.58475
1748,1663334766421,1.0217353,1.3621143,9.407681
1749,1663334766422,0.94755775,1.3812568,9.225528
1750,1663334766432,0.89013004,1.4315062,9.060423
1751,1663334766432,0.8662018,1.474577,8.895318
1752,1663334766432,0.82313097,1.4769697,8.7469635
1753,1663334766432,0.7800602,1.5128621,8.540881
1754,1663334766434,0.74416786,1.541576,8.375776
1755,1663334766436,0.701097,1.5798612,8.2346
1756,1663334766442,0.6628119,1.6205392,8.076375
1757,1663334766442,0.6433702,1.66361,7.9256268
1758,1663334766444,0.60747784,1.6923238,7.758129
1759,1663334766448,0.5524429,1.7162521,7.640881
1760,1663334766449,0.5309075,1.75693,7.4802628
1761,1663334766454,0.5093721,1.7952151,7.329515
1762,1663334766455,0.49022955,1.8095721,7.1763744
1763,1663334766455,0.45912284,1.811965,7.0208406
1764,1663334766457,0.42562333,1.8478572,6.8650084
1765,1663334766460,0.39451665,1.8526429,6.7022963
1766,1663334766462,0.39930227,1.8550358,6.558727
1767,1663334766465,0.34426737,1.8601205,6.3981085
1768,1663334766466,0.30837503,1.8744774,6.242575
1769,1663334766469,0.27008986,1.8912272,6.1157556
1770,1663334766472,0.25573292,1.8960128,5.9602222
1771,1663334766473,0.23419751,1.9199411,5.857032
1772,1663334766476,0.1911267,1.9031913,5.7469616
1773,1663334766479,0.1576272,1.9414765,5.6416774
1774,1663334766481,0.14087744,1.9510478,5.5340004
1775,1663334766483,0.11455639,1.9103698,5.4813585
1776,1663334766485,0.09032906,1.9366908,5.4095736
1777,1663334766489,0.035294134,1.9319052,5.3832526
1778,1663334766491,0.0065802624,1.9414765,5.3449674
1779,1663334766492,-0.0077766734,1.9582262,5.354539
1780,1663334766495,-0.010169496,1.9438694,5.3904314
1781,1663334766498,-0.010169496,1.9606191,5.512465
1782,1663334766500,0.011365907,1.9869401,5.601
1783,1663334766502,0.01375873,1.9654047,5.6703916
1784,1663334766505,0.0065802624,1.9438694,5.6991053
1785,1663334766507,0.04007978,1.934298,5.732605
1786,1663334766509,0.032901313,1.9103698,5.730212
1787,1663334766511,0.030508488,1.8816559,5.758926
1788,1663334766514,0.07597212,1.8960128,5.782854
1789,1663334766516,0.08075777,1.8502501,5.8019967
1790,1663334766519,0.09032906,1.8744774,5.852246
1791,1663334766523,0.09990034,1.8601205,5.898009
1792,1663334766523,0.12891331,1.8888344,5.955436
1793,1663334766526,0.12891331,1.8864416,6.0009003
1794,1663334766528,0.12173485,1.8960128,6.067899
1795,1663334766531,0.09032906,1.9175483,6.1061845
1796,1663334766532,0.09272188,1.9223338,6.1827545
1797,1663334766535,0.0951147,1.9271195,6.2665033
1798,1663334766538,0.09272188,1.934298,6.4052873
1799,1663334766540,0.12412767,1.9486549,6.506085
1800,1663334766542,0.17198412,1.9534405,6.6711893
1801,1663334766545,0.21984059,1.9127626,6.8339014
1802,1663334766548,0.25812575,1.9031913,6.9822564
1803,1663334766552,0.33230326,1.89362,7.133303
1804,1663334766552,0.41605204,1.8550358,7.2673016
1805,1663334766555,0.44955155,1.8550358,7.379764
1806,1663334766557,0.52133626,1.8311075,7.470691
1807,1663334766559,0.5500501,1.838286,7.568797
1808,1663334766561,0.5667999,1.8191434,7.650452
1809,1663334766564,0.6026922,1.8239291,7.72463
1810,1663334766566,0.62901324,1.8023937,7.7940216
1811,1663334766570,0.65054864,1.7593229,7.870592
1812,1663334766571,0.6337989,1.7665013,7.9591265
1813,1663334766573,0.65294147,1.7425731,8.03809
1814,1663334766575,0.6481558,1.7306089,8.109874
1815,1663334766578,0.6652047,1.7377875,8.155637
1816,1663334766580,0.6628119,1.7090735,8.239386
1817,1663334766585,0.6795616,1.6875381,8.335098
1818,1663334766586,0.6939186,1.66361,8.426025
1819,1663334766588,0.74177504,1.6683956,8.56481
1820,1663334766591,0.7896315,1.6731812,8.744571
1821,1663334766592,0.8470592,1.6372889,8.945567
1822,1663334766595,0.91405827,1.6420746,9.148957
1823,1663334766598,0.9762716,1.634896,9.326325
1824,1663334766599,1.0911272,1.6301104,9.527323
1825,1663334766601,1.2203395,1.622932,9.7043915
1826,1663334766609,1.3618152,1.6277176,9.951151
1827,1663334766609,1.5221343,1.6205392,10.216755
1828,1663334766609,1.6896319,1.6301104,10.5018
1829,1663334766611,1.8430717,1.6157535,10.786546
1830,1663334766613,2.000998,1.6468602,11.109876
1831,1663334766618,2.1445673,1.6564314,11.411371
1832,1663334766619,2.297708,1.6420746,11.732308
1833,1663334766621,2.4894328,1.6947167,12.05534
1834,1663334766622,2.6282165,1.7186449,12.3810625
1835,1663334766625,2.798107,1.7401803,12.658929
1836,1663334766627,2.9419754,1.7904296,12.931711
1837,1663334766630,3.0448668,1.8000008,13.18535
1838,1663334766632,3.1716864,1.867299,13.427324
1839,1663334766635,3.2745779,1.8840487,13.724034
1840,1663334766637,3.3367913,1.9295124,13.937295
1841,1663334766639,3.418147,1.9773688,14.188541
1842,1663334766641,3.446861,1.974976,14.413765
1843,1663334766644,3.4926238,1.9677975,14.593227
1844,1663334766647,3.487838,2.013261,14.753546
1845,1663334766650,3.5189447,2.0252252,14.887843
1846,1663334766651,3.5189447,2.015654,14.997913
1847,1663334766653,3.4686956,1.9654047,15.110376
1848,1663334766657,3.458825,2.0180469,15.194124
1849,1663334766658,3.4157543,2.0060828,15.230017
1850,1663334766660,3.3990045,1.9558334,15.234802
1851,1663334766663,3.3511481,1.9438694,15.220446
1852,1663334766665,3.2841492,1.8960128,15.158233
1853,1663334766668,3.1932218,1.8406788,15.081662
1854,1663334766671,3.1046875,1.7784654,14.957235
1855,1663334766674,2.9922247,1.7138592,14.825331
1856,1663334766674,2.9108686,1.66361,14.667404
1857,1663334766676,2.8196423,1.6061822,14.490335
1858,1663334766680,2.6784658,1.5726827,14.293825
1859,1663334766681,2.582753,1.5463617,14.123935
1860,1663334766684,2.5061827,1.5128621,13.954044
1861,1663334766687,2.4152553,1.5032908,13.750654
1862,1663334766690,2.335993,1.5296118,13.563715
1863,1663334766692,2.2546372,1.5367904,13.374682
1864,1663334766694,2.1924238,1.5607185,13.219149
1865,1663334766697,2.1421745,1.5678971,13.044173
1866,1663334766699,2.0703897,1.5774683,12.857533
1867,1663334766702,2.0440688,1.5870396,12.663714
1868,1663334766703,1.9651057,1.5702899,12.474382
1869,1663334766705,1.9674984,1.5607185,12.256636
1870,1663334766709,1.9435701,1.5296118,12.108281
1871,1663334766710,1.8981066,1.5200406,11.930913
1872,1663334766713,1.8741783,1.5080764,11.763415
1873,1663334766715,1.8167506,1.4913267,11.55524
1874,1663334766717,1.8143578,1.4841483,11.373086
1875,1663334766721,1.7904296,1.4841483,11.19841
1876,1663334766722,1.7350955,1.4817554,11.030912
1877,1663334766725,1.6680965,1.4889339,10.84158
1878,1663334766727,1.62024,1.4697913,10.650154
1879,1663334766729,1.538884,1.46022,10.497014
1880,1663334766731,1.4862419,1.4841483,10.312468
1881,1663334766733,1.404886,1.4697913,10.116256
1882,1663334766736,1.3402798,1.474577,9.90808
1883,1663334766738,1.2445669,1.4961123,9.730712
1884,1663334766742,1.2083755,1.4889339,9.529716
1885,1663334766743,1.1030912,1.4793626,9.374182
1886,1663334766746,1.0456635,1.527219,9.180064
1887,1663334766748,0.9810573,1.5343975,9.010174
1888,1663334766750,0.91884387,1.5631114,8.866604
1889,1663334766754,0.8662018,1.5870396,8.699107
1890,1663334766756,0.8111669,1.5966109,8.545667
1891,1663334766759,0.7609176,1.6588243,8.411669
1892,1663334766766,0.72023964,1.6707884,8.2681
1893,1663334766770,0.6939186,1.6875381,8.184351
1894,1663334766770,0.65054864,1.7234305,8.076375
1895,1663334766770,0.63140607,1.7473587,7.98784
1896,1663334766770,0.5907281,1.7808583,7.9304123
1897,1663334766772,0.57158554,1.7880367,7.813164
1898,1663334766774,0.57158554,1.797608,7.7772717
1899,1663334766791,0.52612185,1.8143578,7.7030945
1900,1663334766791,0.5165506,1.8239291,7.643274
1901,1663334766791,0.5189434,1.8768703,7.609774
1902,1663334766791,0.48305106,1.9175483,7.561619
1903,1663334766791,0.47108695,1.9271195,7.5161552
1904,1663334766791,0.42562333,1.9438694,7.4802628
1905,1663334766792,0.40648076,1.9845473,7.4276204
1906,1663334766798,0.35144582,1.9845473,7.413264
1907,1663334766799,0.34187454,1.9989042,7.341479
1908,1663334766799,0.2533401,1.9773688,7.272087
1909,1663334766800,0.18634106,1.9869401,7.2122664
1910,1663334766802,0.18155542,1.9725832,7.152446
1911,1663334766804,0.13369897,1.9438694,7.099804
1912,1663334766807,0.08554341,1.9390837,7.0280194
1913,1663334766810,0.08793623,1.9271195,6.9391856
1914,1663334766812,0.064008005,1.8768703,6.884151
1915,1663334766814,0.011365907,1.8888344,6.7812595
1916,1663334766816,-0.026919255,1.89362,6.6999035
1917,1663334766819,-0.046061836,1.9007984,6.606583
1918,1663334766821,-0.046061836,1.8912272,6.4869423
1919,1663334766825,-0.096311115,1.8574286,6.3717875
1920,1663334766826,-0.10827523,1.8574286,6.2641106
1921,1663334766829,-0.14177474,1.8358932,6.1588264
1922,1663334766830,-0.17527425,1.8335004,6.0655065
1923,1663334766833,-0.21595225,1.8478572,5.962615
1924,1663334766836,-0.22552353,1.8526429,5.840282
1925,1663334766839,-0.2638087,1.8311075,5.730212
1926,1663334766842,-0.2853441,1.8502501,5.6560345
1927,1663334766844,-0.32841492,1.8625133,5.5794644
1928,1663334766845,-0.3595216,1.8335004,5.510072
1929,1663334766848,-0.3714857,1.867299,5.4574304
1930,1663334766850,-0.38584265,1.879263,5.4143596
1931,1663334766854,-0.40977088,1.89362,5.3904314
1932,1663334766854,-0.3906283,1.9199411,5.3497534
1933,1663334766856,-0.3930211,1.9845473,5.366503
1934,1663334766860,-0.34516466,2.001297,5.4000025
1935,1663334766864,-0.34037903,2.0276182,5.4430733
1936,1663334766864,-0.26141587,2.09701,5.510072
1937,1663334766867,-0.20638095,2.1568305,5.5890355
1938,1663334766869,-0.17527425,2.1664019,5.67757
1939,1663334766871,-0.091525465,2.2094727,5.8043895
1940,1663334766874,-0.017347964,2.202294,5.9171515
1941,1663334766877,0.044865426,2.2429721,6.0774703
1942,1663334766879,0.1265205,2.2334008,6.194719
1943,1663334766881,0.19830517,2.2238295,6.3574305
1944,1663334766882,0.2748755,2.2118654,6.5443697
1945,1663334766885,0.3275176,2.19033,6.7812595
1946,1663334766889,0.40887356,2.1472592,7.01097
1947,1663334766891,0.47108695,2.1400807,7.260123
1948,1663334766894,0.54287165,2.1281166,7.4395847
1949,1663334766895,0.59312093,2.1185453,7.6337023
1950,1663334766897,0.6146563,2.0946171,7.81795
1951,1663334766900,0.619442,2.0874386,8.018947
1952,1663334766902,0.62901324,2.0946171,8.198708
1953,1663334766904,0.6409774,2.0802603,8.40449
1954,1663334766908,0.65054864,2.0563319,8.583952
1955,1663334766909,0.65294147,2.0467606,8.792427
1956,1663334766911,0.6433702,2.0276182,9.000603
1957,1663334766913,0.68195444,2.0084755,9.239884
1958,1663334766915,0.7082755,1.974976,9.481859
1959,1663334766921,0.74895346,1.9486549,9.737891
1960,1663334766921,0.7920243,1.9151554,9.977472
1961,1663334766923,0.8566305,1.89362,10.223933
1962,1663334766925,0.90448695,1.8625133,10.439586
1963,1663334766928,1.0025927,1.8215362,10.666904
1964,1663334766930,1.1174482,1.8191434,10.889437
1965,1663334766932,1.1988041,1.8215362,11.08834
1966,1663334766936,1.3091731,1.8047864,11.301301
1967,1663334766938,1.419243,1.8167506,11.512169
1968,1663334766940,1.5460626,1.8263218,11.734701
1969,1663334766942,1.675275,1.8191434,11.990733
1970,1663334766945,1.7757735,1.8311075,12.230315
1971,1663334766948,1.8909281,1.8888344,12.462419
1972,1663334766949,1.986641,1.9295124,12.670894
1973,1663334766952,2.094318,1.9558334,12.876676
1974,1663334766954,2.134996,1.9893329,13.089637
1975,1663334766956,2.1900308,1.9893329,13.22872
1976,1663334766958,2.2498515,2.0180469,13.412968
1977,1663334766960,2.297708,2.0635104,13.518251
1978,1663334766963,2.3602204,2.1137598,13.613964
1979,1663334766965,2.3913271,2.1544378,13.6809635
1980,1663334766968,2.4320052,2.1999013,13.762618
1981,1663334766971,2.4487548,2.20708,13.791332
1982,1663334766973,2.4702902,2.202294,13.810475
1983,1663334766975,2.4655046,2.219044,13.870296
1984,1663334766977,2.4918256,2.2094727,13.889438
1985,1663334766979,2.4607189,2.20708,13.853546
1986,1663334766982,2.4391835,2.1544378,13.860724
1987,1663334766985,2.408077,2.164009,13.848761
1988,1663334766987,2.3769703,2.149652,13.848761
1989,1663334766989,2.3407788,2.1161525,13.8296175
1990,1663334766992,2.2905295,2.09701,13.786547
1991,1663334766994,2.2618155,2.053939,13.72882
1992,1663334766996,2.2067807,2.030011,13.673785
1993,1663334766998,2.1708884,2.0276182,13.611571
1994,1663334767001,2.120639,2.0060828,13.537395
1995,1663334767003,2.079961,1.9845473,13.451253
1996,1663334767006,2.0321047,1.9414765,13.348361
1997,1663334767008,1.9986051,1.9438694,13.259827
1998,1663334767010,1.9531415,1.9103698,13.173386
1999,1663334767014,1.8933209,1.9127626,13.10878
2000,1663334767015,1.8765712,1.9199411,13.060924
2001,1663334767018,1.8071793,1.9127626,13.032209
2002,1663334767020,1.8167506,1.8840487,12.986746
2003,1663334767023,1.7856439,1.8816559,12.919746
2004,1663334767025,1.7470596,1.8768703,12.864712
2005,1663334767027,1.7183458,1.879263,12.790534
2006,1663334767030,1.701596,1.8744774,12.74507
2007,1663334767031,1.7111673,1.9031913,12.632608
2008,1663334767036,1.634597,1.8649062,12.507882
2009,1663334767036,1.5963118,1.8816559,12.402598
2010,1663334767039,1.5843477,1.8550358,12.261421
2011,1663334767042,1.52692,1.8649062,12.139387
2012,1663334767044,1.4958133,1.8526429,11.978769
2013,1663334767045,1.4383855,1.8311075,11.808879
2014,1663334767052,1.4001004,1.8287147,11.655738
2015,1663334767052,1.3139588,1.8023937,11.49512
2016,1663334767054,1.242174,1.811965,11.327622
2017,1663334767056,1.1820544,1.8239291,11.152946
2018,1663334767057,1.1413764,1.811965,10.942079
2019,1663334767060,1.0863415,1.7880367,10.755439
2020,1663334767062,1.038485,1.783251,10.556834
2021,1663334767064,0.9954142,1.7904296,10.324431
2022,1663334767070,0.9236295,1.8478572,10.113863
2023,1663334767070,0.8350951,1.8430717,9.912866
2024,1663334767072,0.76570326,1.8215362,9.723534
2025,1663334767077,0.71306115,1.8478572,9.515358
2026,1663334767077,0.65054864,1.8625133,9.316754
2027,1663334767079,0.57876396,1.879263,9.105886
2028,1663334767081,0.5189434,1.89362,8.9312105
2029,1663334767085,0.4639085,1.8960128,8.7469635
2030,1663334767086,0.4232305,1.9223338,8.583952
2031,1663334767089,0.389731,1.9534405,8.418847
2032,1663334767091,0.3681956,1.9725832,8.244171
2033,1663334767093,0.31316066,2.030011,8.066803
2034,1663334767095,0.31076783,2.0252252,7.923234
2035,1663334767097,0.31076783,2.0491536,7.798807
2036,1663334767101,0.30837503,2.070689,7.6337023
2037,1663334767102,0.27726832,2.1185453,7.4850483
2038,1663334767105,0.24855445,2.1664019,7.3510504
2039,1663334767107,0.20548365,2.2238295,7.207481
2040,1663334767109,0.20309082,2.2094727,7.068697
2041,1663334767112,0.19830517,2.2669003,6.9559355
2042,1663334767114,0.20309082,2.2669003,6.826723
2043,1663334767117,0.17198412,2.286043,6.707082
2044,1663334767119,0.16002001,2.3171496,6.587441
2045,1663334767122,0.16241284,2.3291137,6.472585
2046,1663334767124,0.1480559,2.3243282,6.3646092
2047,1663334767126,0.11455639,2.3338995,6.2808604
2048,1663334767128,0.07836494,2.3171496,6.1707907
2049,1663334767130,0.05682954,2.3338995,6.046364
2050,1663334767134,0.07836494,2.3195424,5.974579
2051,1663334767136,0.05922236,2.3243282,5.9267225
2052,1663334767138,0.028115666,2.326721,5.837889
2053,1663334767141,0.018544376,2.3362923,5.773283
2054,1663334767143,-0.00059820566,2.338685,5.6967125
2055,1663334767145,-0.0317049,2.3482563,5.6297135
2056,1663334767147,-0.04127619,2.338685,5.555536
2057,1663334767150,-0.06520442,2.312364,5.4670014
2058,1663334767154,-0.06520442,2.2956142,5.3760743
2059,1663334767155,-0.048454657,2.326721,5.311169
2060,1663334767157,-0.06759724,2.3147569,5.2369914
2061,1663334767159,-0.05802595,2.326721,5.1939206
2062,1663334767162,-0.093918286,2.309971,5.1556354
2063,1663334767164,-0.1058824,2.338685,5.1436715
2064,1663334767166,-0.10827523,2.355435,5.098208
2065,1663334767169,-0.13220344,2.3745773,5.098208
2066,1663334767171,-0.089132644,2.39372,5.098208
2067,1663334767174,-0.15373886,2.39372,5.1388855
2068,1663334767176,-0.17288144,2.417648,5.174778
2069,1663334767178,-0.15373886,2.4299114,5.229813
2070,1663334767180,-0.15373886,2.4346972,5.2872405
2071,1663334767183,-0.14416756,2.408077,5.3976097
2072,1663334767186,-0.11784652,2.408077,5.4430733
2073,1663334767188,-0.1058824,2.3913271,5.5675
2074,1663334767190,-0.055633128,2.367399,5.6943197
2075,1663334767193,-0.0317049,2.39372,5.8283176
2076,1663334767195,0.016151553,2.3697917,5.9961143
2077,1663334767196,0.068793654,2.3338995,6.1851473
2078,1663334767200,0.13609178,2.326721,6.3215384
2079,1663334767202,0.19351953,2.355435,6.443572
2080,1663334767205,0.23419751,2.3171496,6.5539412
2081,1663334767206,0.200698,2.3147569,6.65444
2082,1663334767209,0.23419751,2.3003998,6.788438
2083,1663334767212,0.24137598,2.2501507,6.908079
2084,1663334767213,0.29162526,2.2214367,7.0399833
2085,1663334767216,0.33230326,2.2405794,7.1476603
2086,1663334767218,0.3681956,2.1951156,7.2840514
2087,1663334767221,0.38733816,2.164009,7.4324064
2088,1663334767223,0.39451665,2.1424735,7.5257263
2089,1663334767226,0.41365921,2.1544378,7.6600237
2090,1663334767228,0.39451665,2.149652,7.772486
2091,1663334767229,0.4232305,2.1544378,7.9040914
2092,1663334767233,0.4232305,2.1544378,8.045268
2093,1663334767235,0.4112664,2.161616,8.248957
2094,1663334767237,0.42801616,2.164009,8.4451685
2095,1663334767240,0.4758726,2.1807587,8.638987
2096,1663334767242,0.5069793,2.1687946,8.87139
2097,1663334767243,0.5285147,2.1927228,9.129815
2098,1663334767247,0.54287165,2.1687946,9.395718
2099,1663334767249,0.60029936,2.161616,9.623035
2100,1663334767251,0.6433702,2.1424735,9.826724
2101,1663334767254,0.66999036,2.09701,10.042078
2102,1663334767256,0.7513463,2.070689,10.269397
2103,1663334767259,0.83030945,2.0467606,10.494621
2104,1663334767260,0.95473623,2.0180469,10.712368
2105,1663334767263,1.0935199,1.9797616,10.999805
2106,1663334767266,1.2059826,1.9486549,11.29173
2107,1663334767269,1.3187444,1.9438694,11.548061
2108,1663334767270,1.4479568,1.9031913,11.854342
2109,1663334767273,1.553241,1.8960128,12.127423
2110,1663334767293,1.6657037,1.8912272,12.390634
2111,1663334767293,1.7880367,1.8430717,12.594024
2112,1663334767293,1.9076779,1.838286,12.807284
2113,1663334767293,2.027319,1.8311075,13.003495
2114,1663334767293,2.14696,1.8744774,13.166207
2115,1663334767293,2.2235305,1.8888344,13.290934
2116,1663334767293,2.3001008,1.9175483,13.412968
2117,1663334767294,2.3985057,1.9486549,13.549358
2118,1663334767294,2.4678974,1.9677975,13.642678
2119,1663334767296,2.501397,1.9893329,13.731213
2120,1663334767299,2.542075,2.0228324,13.803296
2121,1663334767302,2.566003,2.0587249,13.860724
2122,1663334767303,2.5899315,2.0994027,13.932509
2123,1663334767305,2.6138597,2.1687946,14.025829
2124,1663334767310,2.649752,2.202294,14.1263275
2125,1663334767310,2.6712873,2.2501507,14.212469
2126,1663334767314,2.716751,2.2884357,14.267504
2127,1663334767316,2.7191439,2.3410778,14.373088
2128,1663334767317,2.7646074,2.39372,14.432908
2129,1663334767320,2.812464,2.4299114,14.523835
2130,1663334767323,2.8483562,2.4394827,14.550157
2131,1663334767326,2.8770702,2.4825535,14.600406
2132,1663334767326,2.9467611,2.4299114,14.590835
2133,1663334767330,2.9443684,2.405684,14.566906
2134,1663334767332,2.9515467,2.365006,14.540585
2135,1663334767334,2.9108686,2.3147569,14.444872
2136,1663334767337,2.8818557,2.2501507,14.349159
2137,1663334767340,2.810071,2.1975086,14.2292185
2138,1663334767341,2.7646074,2.1424735,14.071293
2139,1663334767344,2.649752,2.0730817,13.954044
2140,1663334767345,2.5372894,2.0180469,13.774583
2141,1663334767350,2.4104698,1.9821545,13.599607
2142,1663334767352,2.3024936,2.0036898,13.393825
2143,1663334767354,2.1780667,1.974976,13.209578
2144,1663334767355,2.0823538,1.9510478,13.025031
2145,1663334767358,1.9818554,1.9797616,12.833605
2146,1663334767361,1.8885353,1.9941186,12.670894
2147,1663334767363,1.797608,1.9893329,12.421741
2148,1663334767365,1.7303098,1.974976,12.244672
2149,1663334767367,1.6585252,1.9797616,12.05534
2150,1663334767370,1.5771692,1.9893329,11.847164
2151,1663334767373,1.512563,1.9630119,11.662917
2152,1663334767375,1.4575281,1.9175483,11.468799
2153,1663334767376,1.3833506,1.9055841,11.289337
2154,1663334767380,1.3283156,1.8649062,11.129018
2155,1663334767383,1.2397813,1.8550358,10.901401
2156,1663334767385,1.1892328,1.8406788,10.717154
2157,1663334767386,1.1078769,1.8430717,10.525727
2158,1663334767390,1.0959128,1.838286,10.319646
2159,1663334767392,1.026521,1.8239291,10.125827
2160,1663334767393,0.9810573,1.8311075,9.965508
2161,1663334767395,0.9236295,1.8335004,9.829117
2162,1663334767399,0.8757731,1.8768703,9.692428
2163,1663334767400,0.8279166,1.8625133,9.55125
2164,1663334767403,0.8111669,1.8768703,9.407681
2165,1663334767405,0.7513463,1.8744774,9.285647
2166,1663334767409,0.72741807,1.8888344,9.127422
2167,1663334767410,0.6891329,1.8864416,9.029316
2168,1663334767412,0.66011995,1.879263,8.895318
2169,1663334767415,0.60747784,1.9007984,8.780462
2170,1663334767417,0.5883353,1.9175483,8.665308
2171,1663334767428,0.52612185,1.907977,8.555239
2172,1663334767428,0.5309075,1.9319052,8.442776
2173,1663334767429,0.4758726,1.9390837,8.359027
2174,1663334767429,0.44955155,1.9677975,8.263314
2175,1663334767429,0.4232305,1.9869401,8.179565
2176,1663334767431,0.39451665,1.9797616,8.129017
2177,1663334767433,0.35144582,1.9869401,8.030911
2178,1663334767436,0.29641092,2.0108683,7.947162
2179,1663334767438,0.29162526,2.0252252,7.8610206
2180,1663334767440,0.24137598,2.0108683,7.758129
2181,1663334767442,0.20787647,2.041975,7.6624165
2182,1663334767445,0.21266212,2.0371895,7.57119
2183,1663334767448,0.20309082,2.070689,7.4587274
2184,1663334767450,0.18634106,2.0563319,7.3366933
2185,1663334767453,0.17676978,2.1041884,7.2433734
2186,1663334767456,0.13130614,2.0994027,7.109375
2187,1663334767464,0.10737792,2.1137598,7.042376
2188,1663334767464,0.09272188,2.1281166,6.920043
2189,1663334767464,0.08793623,2.1305094,6.812366
2190,1663334767464,0.08075777,2.1472592,6.6975107
2191,1663334767467,0.032901313,2.19033,6.6089764
2192,1663334767469,0.030508488,2.1855445,6.491728
2193,1663334767477,0.0065802624,2.1735802,6.367002
2194,1663334767478,-0.00059820566,2.1879373,6.271289
2195,1663334767478,-0.034097724,2.1975086,6.1301126
2196,1663334767478,-0.03888337,2.202294,6.0248284
2197,1663334767481,-0.07716853,2.2286153,5.9027944
2198,1663334767483,-0.12263216,2.219044,5.782854
2199,1663334767485,-0.13459627,2.2525434,5.684748
2200,1663334767487,-0.1369891,2.2334008,5.634499
2201,1663334767490,-0.14177474,2.2908285,5.5651073
2202,1663334767493,-0.11306087,2.3147569,5.512465
2203,1663334767496,-0.13220344,2.3338995,5.445466
2204,1663334767497,-0.13220344,2.3626132,5.4239306
2205,1663334767499,-0.1369891,2.3745773,5.3904314
2206,1663334767501,-0.11306087,2.3745773,5.36411
2207,1663334767505,-0.096311115,2.420041,5.361717
2208,1663334767507,-0.06999006,2.4299114,5.3497534
2209,1663334767509,-0.046061836,2.4921248,5.366503
2210,1663334767510,-0.029312078,2.5040889,5.4095736
2211,1663334767512,0.047258247,2.489732,5.4430733
2212,1663334767525,0.102592275,2.5040889,5.4957156
2213,1663334767525,0.11455639,2.4945176,5.560322
2214,1663334767525,0.1480559,2.4969103,5.651249
2215,1663334767525,0.18155542,2.5064816,5.727819
2216,1663334767525,0.19351953,2.4945176,5.852246
2217,1663334767527,0.23898315,2.4945176,5.9530435
2218,1663334767530,0.27726832,2.4442682,6.0415783
2219,1663334767533,0.3179463,2.4346972,6.1492553
2220,1663334767535,0.35383865,2.4323041,6.218647
2221,1663334767538,0.37058842,2.3745773,6.285646
2222,1663334767540,0.38494533,2.367399,6.3550377
2223,1663334767542,0.41365921,2.3362923,6.434001
2224,1663334767543,0.43758744,2.3243282,6.472585
2225,1663334767546,0.4639085,2.3147569,6.5371914
2226,1663334767549,0.4854439,2.338685,6.5635123
2227,1663334767553,0.47347978,2.3602204,6.652047
2228,1663334767553,0.5021936,2.3889344,6.7836523
2229,1663334767559,0.5021936,2.4152553,6.963114
2230,1663334767559,0.5141578,2.4128625,7.166803
2231,1663334767560,0.53569317,2.417648,7.379764
2232,1663334767563,0.5500501,2.4227328,7.5930243
2233,1663334767565,0.5309075,2.367399,7.825128
2234,1663334767568,0.5165506,2.3362923,8.047661
2235,1663334767571,0.49980083,2.312364,8.270493
2236,1663334767573,0.5285147,2.2262223,8.469096
2237,1663334767575,0.52612185,2.1831515,8.634201
2238,1663334767577,0.53569317,2.1041884,8.799605
2239,1663334767580,0.48783672,2.053939,8.957532
2240,1663334767582,0.4447659,2.013261,9.1465645
2241,1663334767585,0.37776688,1.9319052,9.402896
2242,1663334767587,0.35144582,1.8649062,9.6326065
2243,1663334767589,0.3275176,1.8047864,9.929616
2244,1663334767591,0.29162526,1.7377875,10.22154
2245,1663334767594,0.2748755,1.7090735,10.508978
2246,1663334767596,0.3059822,1.6109679,10.774581
2247,1663334767598,0.34187454,1.5439688,11.026127
2248,1663334767600,0.39930227,1.4841483,11.217552
2249,1663334767614,0.49022955,1.4434702,11.442478
2250,1663334767614,0.60029936,1.4123635,11.703594
2251,1663334767614,0.6843473,1.3669,11.969198
2252,1663334767614,0.74177504,1.3501502,12.180065
2253,1663334767614,0.8207382,1.282852,12.419348
2254,1663334767615,0.86859465,1.2999009,12.58206
2255,1663334767616,0.9906286,1.2852448,12.77857
2256,1663334767621,1.1006985,1.3094722,12.941282
2257,1663334767623,1.1796615,1.3334004,13.106387
2258,1663334767625,1.3115659,1.3884354,13.312469
2259,1663334767626,1.4575281,1.4338989,13.523037
2260,1663334767630,1.5508481,1.5224334,13.707285
2261,1663334767632,1.7039888,1.5774683,13.915759
2262,1663334767634,1.8287147,1.6420746,14.116756
2263,1663334767636,1.9387846,1.6779668,14.274683
2264,1663334767638,2.0751755,1.7425731,14.416159
2265,1663334767641,2.1828525,1.7952151,14.554942
2266,1663334767643,2.3001008,1.8406788,14.638691
2267,1663334767646,2.4008985,1.8888344,14.743975
2268,1663334767648,2.4511478,1.9390837,14.839688
2269,1663334767651,2.554039,1.9510478,14.964414
2270,1663334767653,2.635395,2.015654,15.050555
2271,1663334767655,2.702394,2.0467606,15.163018
2272,1663334767658,2.759822,2.082653,15.2419815
2273,1663334767665,2.8220353,2.1041884,15.323338
2274,1663334767665,2.8268209,2.0898316,15.354444
2275,1663334767665,2.798107,2.0802603,15.306587
2276,1663334767667,2.7813573,2.0587249,15.287445
2277,1663334767670,2.757429,2.0036898,15.158233
2278,1663334767672,2.6856444,1.9701903,15.009877
2279,1663334767674,2.582753,1.9127626,14.846867
2280,1663334767677,2.4846473,1.8454645,14.641084
2281,1663334767684,2.3697917,1.8023937,14.413765
2282,1663334767684,2.2522442,1.7617157,14.224433
2283,1663334767684,2.1421745,1.7377875,14.030615
2284,1663334767685,2.0249262,1.7234305,13.8296175
2285,1663334767689,1.8837496,1.7234305,13.652249
2286,1663334767691,1.8047864,1.7234305,13.46561
2287,1663334767693,1.6896319,1.7162521,13.257434
2288,1663334767695,1.5867405,1.7042879,13.106387
2289,1663334767698,1.512563,1.6731812,12.919746
2290,1663334767700,1.4288142,1.6420746,12.730714
2291,1663334767703,1.3474582,1.6157535,12.579667
2292,1663334767705,1.2852448,1.6109679,12.376277
2293,1663334767708,1.2326027,1.5583258,12.244672
2294,1663334767710,1.1796615,1.5631114,12.050554
2295,1663334767712,1.0911272,1.5631114,11.871092
2296,1663334767714,1.0719845,1.5678971,11.653345
2297,1663334767716,1.0552348,1.5846468,11.473584
2298,1663334767719,1.0193424,1.6109679,11.29173
2299,1663334767722,0.9762716,1.6277176,11.129018
2300,1663334767723,0.92602235,1.66361,10.939686
2301,1663334767727,0.89730847,1.6779668,10.7793665
2302,1663334767730,0.8446664,1.689931,10.599905
2303,1663334767731,0.8255238,1.6947167,10.427622
2304,1663334767733,0.7848458,1.7306089,10.23829
2305,1663334767735,0.7369894,1.7330018,10.075578
2306,1663334767737,0.6939186,1.771287,9.884152
2307,1663334767740,0.60747784,1.7641085,9.737891
2308,1663334767743,0.59312093,1.7952151,9.558429
2309,1663334767746,0.5404788,1.8167506,9.38136
2310,1663334767748,0.5021936,1.8311075,9.203992
2311,1663334767754,0.4351946,1.8816559,9.031709
2312,1663334767754,0.41844487,1.9319052,8.85464
2313,1663334767755,0.37298122,1.9486549,8.711071
2314,1663334767757,0.33230326,1.974976,8.538488
2315,1663334767758,0.2844468,2.015654,8.411669
2316,1663334767762,0.27966115,2.0659032,8.263314
2317,1663334767764,0.25094727,2.1065812,8.13141
2318,1663334767767,0.23898315,2.1520448,7.978269
2319,1663334767769,0.22941187,2.19033,7.7940216
2320,1663334767772,0.22701904,2.257329,7.69113
2321,1663334767779,0.18873389,2.3051856,7.372586
2322,1663334767779,0.18394823,2.312364,7.255337
2323,1663334767780,0.1480559,2.3434706,7.0878396
2324,1663334767783,0.15523437,2.3602204,6.896115
2325,1663334767785,0.13848461,2.3817558,6.7525454
2326,1663334767788,0.08075777,2.3913271,6.6041903
2327,1663334767790,0.09032906,2.3985057,6.40768
2328,1663334767793,0.0951147,2.4323041,6.2521462
2329,1663334767794,0.054436713,2.4323041,6.079863
2330,1663334767797,0.047258247,2.4152553,5.938687
2331,1663334767799,0.030508488,2.4394827,5.756533
2332,1663334767803,-0.00059820566,2.4394827,5.617749
2333,1663334767813,-0.046061836,2.4032912,5.4646087
2334,1663334767813,-0.07477571,2.4275186,5.337789
2335,1663334767813,-0.12023934,2.417648,5.205885
2336,1663334767813,-0.12263216,2.367399,5.093422
2337,1663334767817,-0.17527425,2.3913271,4.9642096
2338,1663334767817,-0.20398813,2.3769703,4.861318
2339,1663334767818,-0.22791636,2.3769703,4.753342
2340,1663334767821,-0.25902304,2.3578277,4.6815577
2341,1663334767823,-0.2757728,2.3410778,4.597809
2342,1663334767825,-0.31166515,2.3219352,4.5355954
2343,1663334767828,-0.32123643,2.309971,4.4925246
2344,1663334767830,-0.32123643,2.298007,4.4374895
2345,1663334767833,-0.3044867,2.3315065,4.430311
2346,1663334767835,-0.34277186,2.3243282,4.3800616
2347,1663334767838,-0.29970104,2.355435,4.4135613
2348,1663334767841,-0.31405798,2.3602204,4.4446683
2349,1663334767843,-0.3068795,2.3865414,4.5284166
2350,1663334767845,-0.2853441,2.420041,4.554738
2351,1663334767846,-0.3068795,2.4514468,4.5930233
2352,1663334767849,-0.2638087,2.4562325,4.6695933
2353,1663334767851,-0.22791636,2.475375,4.743771
2354,1663334767855,-0.22073789,2.4681966,4.875675
2355,1663334767855,-0.19202402,2.4346972,4.961817
2356,1663334767858,-0.20638095,2.4152553,5.0790653
2357,1663334767861,-0.1585245,2.3889344,5.2226343
2358,1663334767864,-0.15134603,2.4008985,5.3593245
2359,1663334767866,-0.07238288,2.39372,5.5507503
2360,1663334767869,-0.014955142,2.3913271,5.667999
2361,1663334767870,0.011365907,2.355435,5.8043895
2362,1663334767874,0.052043892,2.326721,5.945865
2363,1663334767875,0.13130614,2.3315065,6.072685
2364,1663334767878,0.1265205,2.3315065,6.235397
2365,1663334767881,0.19351953,2.3362923,6.3741803
2366,1663334767883,0.22941187,2.355435,6.5228343
2367,1663334767885,0.27966115,2.3721845,6.7022963
2368,1663334767888,0.29162526,2.3697917,6.8865438
2369,1663334767893,0.2748755,2.3817558,7.099804
2370,1663334767893,0.31076783,2.3865414,7.322336
2371,1663334767894,0.3394817,2.4128625,7.5352974
2372,1663334767897,0.33708888,2.3985057,7.7677007
2373,1663334767899,0.30837503,2.4128625,8.016554
2374,1663334767901,0.34666017,2.3889344,8.275278
2375,1663334767904,0.349053,2.379363,8.543274
2376,1663334767906,0.34187454,2.3219352,8.79482
2377,1663334767907,0.349053,2.2621148,9.067601
2378,1663334767911,0.34187454,2.1831515,9.290433
2379,1663334767914,0.35383865,2.1137598,9.505787
2380,1663334767916,0.33708888,2.015654,9.733106
2381,1663334767917,0.32991043,1.9462621,9.960723
2382,1663334767922,0.30119655,1.9031913,10.202397
2383,1663334767922,0.33469605,1.8071793,10.406087
2384,1663334767924,0.35383865,1.7449659,10.595119
2385,1663334767927,0.35623148,1.7425731,10.812866
2386,1663334767929,0.40887356,1.6947167,11.064412
2387,1663334767932,0.4423731,1.6851454,11.353944
2388,1663334767934,0.47826543,1.6325033,11.655738
2389,1663334767936,0.49262238,1.6133606,11.899806
2390,1663334767939,0.55722857,1.5535401,12.132209
2391,1663334767941,0.6361917,1.5224334,12.3403845
2392,1663334767944,0.7369894,1.4626129,12.594024
2393,1663334767946,0.8207382,1.4386846,12.764214
2394,1663334767948,0.9451649,1.4410775,12.941282
2395,1663334767951,1.0313065,1.4338989,13.106387
2396,1663334767953,1.1509477,1.4219348,13.267005
2397,1663334767955,1.270888,1.4554343,13.43211
2398,1663334767957,1.3594223,1.5200406,13.606786
2399,1663334767959,1.4383855,1.5750755,13.776976
2400,1663334767962,1.5340984,1.6205392,13.963615
2401,1663334767965,1.6058831,1.7138592,14.123935
2402,1663334767967,1.6633109,1.783251,14.322838
2403,1663334767970,1.7374884,1.8454645,14.442479
2404,1663334767972,1.8071793,1.8984057,14.605191
2405,1663334767973,1.8502501,1.9630119,14.717654
2406,1663334767977,1.9148563,1.9582262,14.825331
2407,1663334767979,2.0153549,2.0108683,14.899808
2408,1663334767981,2.0416758,2.015654,15.002699
2409,1663334767984,2.0919251,1.9869401,15.048162
2410,1663334767986,2.134996,1.9821545,15.072091
2411,1663334767988,2.1900308,1.9438694,15.081662
2412,1663334767990,2.2091734,1.9103698,15.064912
2413,1663334767995,2.2115662,1.9103698,15.002699
2414,1663334767995,2.175674,1.8888344,15.009877
2415,1663334767999,2.1517458,1.8406788,14.964414
2416,1663334768001,2.1014965,1.8263218,14.933307
2417,1663334768003,2.0081763,1.7952151,14.868402
2418,1663334768004,1.96032,1.7928224,14.813367
2419,1663334768006,1.8981066,1.7736797,14.734404
2420,1663334768011,1.8502501,1.7784654,14.653048
2421,1663334768013,1.7880367,1.8047864,14.523835
2422,1663334768015,1.7590238,1.8454645,14.435301
2423,1663334768018,1.6800606,1.8720846,14.353945
2424,1663334768020,1.6393826,1.907977,14.231612
2425,1663334768021,1.6106688,1.8984057,14.107185
2426,1663334768023,1.5963118,1.9247267,14.006686
2427,1663334768028,1.5747764,1.9271195,13.901402
2428,1663334768030,1.5364913,1.8888344,13.767405
2429,1663334768031,1.5053846,1.8768703,13.657035
2430,1663334768033,1.4503496,1.8601205,13.49193
2431,1663334768036,1.4288142,1.8358932,13.274183
2432,1663334768037,1.4072788,1.811965,13.051352
2433,1663334768040,1.3450655,1.8335004,12.783356
2434,1663334768043,1.3259228,1.7952151,12.500704
2435,1663334768045,1.2780664,1.8047864,12.249457
2436,1663334768047,1.2107682,1.8191434,11.952448
2437,1663334768051,1.1892328,1.8502501,11.703594
2438,1663334768055,1.1629118,1.8430717,11.387443
2439,1663334768055,1.0911272,1.8358932,11.08834
2440,1663334768057,1.0432707,1.8649062,10.812866
2441,1663334768060,0.98584294,1.8768703,10.520942
2442,1663334768061,0.94277215,1.8912272,10.231112
2443,1663334768064,0.8997013,1.9103698,9.97508
2444,1663334768067,0.85902333,1.9271195,9.725926
2445,1663334768069,0.79441714,1.9295124,9.505787
2446,1663334768071,0.72502524,1.9414765,9.259326
2447,1663334768073,0.65054864,1.9390837,9.017352
2448,1663334768077,0.60029936,1.9223338,8.768498
2449,1663334768079,0.5309075,1.9414765,8.536096
2450,1663334768081,0.45194438,1.9534405,8.339884
2451,1663334768084,0.40887356,1.9558334,8.126624
2452,1663334768086,0.37058842,1.974976,7.9351983
2453,1663334768086,0.28923243,1.9965113,7.7557364
2454,1663334768091,0.23898315,2.0060828,7.561619
2455,1663334768093,0.14327025,2.013261,7.420442
2456,1663334768095,0.11694921,2.013261,7.2696943
2457,1663334768098,0.035294134,2.0204396,7.1691957
2458,1663334768100,-0.005383851,2.0754745,7.0639114
2459,1663334768102,-0.06281159,2.082653,6.9535427
2460,1663334768104,-0.11784652,2.0922244,6.829116
2461,1663334768106,-0.13220344,2.1161525,6.71426
2462,1663334768109,-0.18245272,2.1329024,6.6281185
2463,1663334768112,-0.22552353,2.164009,6.501299
2464,1663334768115,-0.27098715,2.20708,6.410073
2465,1663334768117,-0.26141587,2.1975086,6.326324
2466,1663334768119,-0.28055847,2.2238295,6.230611
2467,1663334768122,-0.32123643,2.2286153,6.134898
2468,1663334768123,-0.32123643,2.2046869,6.072685
2469,1663334768127,-0.33320054,2.2286153,5.986543
2470,1663334768128,-0.37627137,2.219044,5.90758
2471,1663334768130,-0.40977088,2.2094727,5.825925
2472,1663334768133,-0.4552345,2.2094727,5.732605
