,timestamp,gyro_x,gyro_y,gyro_z
0,1663243311615,-0.059252184,0.4344651,0.5708368
1,1663243311615,-0.059252184,0.4344651,0.5708368
2,1663243311615,-0.059252184,0.4344651,0.5708368
3,1663243311615,-0.059252184,0.4344651,0.5708368
4,1663243311615,-0.059252184,0.4344651,0.5708368
5,1663243311615,-0.059252184,0.4344651,0.5708368
6,1663243311615,-0.059252184,0.4344651,0.5708368
7,1663243311615,-0.059252184,0.4344651,0.5708368
8,1663243311615,-0.059252184,0.4344651,0.5708368
9,1663243311615,-0.059252184,0.4344651,0.5708368
10,1663243311615,-0.059252184,0.4344651,0.5708368
11,1663243311615,-0.059252184,0.4344651,0.5708368
12,1663243311615,-0.059252184,0.4344651,0.5708368
13,1663243311615,-0.059252184,0.4344651,0.5708368
14,1663243311615,-0.059252184,0.4344651,0.5708368
15,1663243311615,-0.059252184,0.4344651,0.5708368
16,1663243311615,-0.059252184,0.4344651,0.5708368
17,1663243311615,-0.059252184,0.4344651,0.5708368
18,1663243311615,-0.059252184,0.4344651,0.5708368
19,1663243311615,0.11300674,0.41369632,0.017409148
20,1663243311616,0.13988402,0.41125292,-0.0009162709
21,1663243311616,0.15332267,0.41125292,-0.022906773
22,1663243311616,0.17531316,0.41125292,-0.042453885
23,1663243311616,0.19974706,0.41736138,-0.05467083
24,1663243311616,0.21929416,0.42713493,-0.06688777
25,1663243311616,0.24128467,0.44423866,-0.07910472
26,1663243311616,0.24983653,0.4601207,-0.08765658
27,1663243311616,0.26816195,0.49188477,-0.096208446
28,1663243311616,0.2816006,0.52609223,-0.10964708
29,1663243311616,0.29381752,0.5737383,-0.11942064
30,1663243311616,0.30603448,0.6213844,-0.13163759
31,1663243311616,0.3048128,0.6849125,-0.14141114
32,1663243311616,0.3011477,0.74111044,-0.1487413
33,1663243311616,0.29259583,0.8144121,-0.15484978
34,1663243311616,0.28404397,0.8877138,-0.15729317
35,1663243311616,0.27182704,0.96101546,-0.15851486
36,1663243311616,0.24861483,1.0404255,-0.15973656
37,1663243311616,0.22784603,1.1039537,-0.15973656
38,1663243311619,0.20096874,1.1638167,-0.15973656
39,1663243311620,0.17409147,1.2004676,-0.16217995
40,1663243311624,0.15454435,1.2407835,-0.16217995
41,1663243311624,0.12522368,1.2664391,-0.16095825
42,1663243311630,0.09468132,1.2664391,-0.16217995
43,1663243311630,0.064138964,1.2578872,-0.16340165
44,1663243311634,0.040926766,1.23101,-0.16462334
45,1663243311634,0.014049487,1.1955808,-0.16340165
46,1663243311639,-0.010384403,1.1528215,-0.16340165
47,1663243311639,-0.029931515,1.1002886,-0.16095825
48,1663243311644,-0.054365408,1.042869,-0.15607147
49,1663243311644,-0.07269082,0.98056257,-0.1511847
50,1663243311649,-0.092237934,0.91214764,-0.14385453
51,1663243311649,-0.108119965,0.838846,-0.13408098
52,1663243311654,-0.11911522,0.7631009,-0.118198946
53,1663243311654,-0.12888877,0.6849125,-0.104760304
54,1663243311659,-0.13377555,0.6128325,-0.08521319
55,1663243311659,-0.1447708,0.5395308,-0.06810947
56,1663243311664,-0.14965758,0.4808895,-0.048562355
57,1663243311664,-0.15087928,0.4417953,-0.024128467
58,1663243311668,-0.14110571,0.39781427,-0.0021379655
59,1663243311668,-0.14599249,0.37826717,0.022295926
60,1663243311673,-0.13377555,0.35994175,0.046729814
61,1663243311673,-0.12644538,0.35749835,0.0723854
62,1663243311678,-0.114228435,0.370937,0.09804098
63,1663243311678,-0.099568106,0.38804072,0.12003148
64,1663243311683,-0.086129464,0.41125292,0.14324369
65,1663243311683,-0.0775776,0.44912544,0.1615691
66,1663243311689,-0.080020994,0.50288,0.18233791
67,1663243311689,-0.07146913,0.55663455,0.20066333
68,1663243311694,-0.07269082,0.6250495,0.21288027
69,1663243311694,-0.0787993,0.69468606,0.22021043
70,1663243311698,-0.08124269,0.7740962,0.229984
71,1663243311698,-0.08735116,0.8620582,0.23731416
72,1663243311703,-0.086129464,0.95246357,0.23731416
73,1663243311703,-0.099568106,1.030652,0.23975755
74,1663243311708,-0.11178505,1.1173923,0.23853585
75,1663243311708,-0.11545013,1.206576,0.23731416
76,1663243311713,-0.13621894,1.2810994,0.23853585
77,1663243311713,-0.15332267,1.3482926,0.23242739
78,1663243311718,-0.18019994,1.4093773,0.2275406
79,1663243311718,-0.19730367,1.4704621,0.23242739
80,1663243311724,-0.21440738,1.5083346,0.23242739
81,1663243311724,-0.24250636,1.5205516,0.23242739
82,1663243311728,-0.26205346,1.5168865,0.24342263
83,1663243311728,-0.28404397,1.4765705,0.2544179
84,1663243311733,-0.3048128,1.4142641,0.2727433
85,1663243311734,-0.3219165,1.3372973,0.2947338
86,1663243311738,-0.34512872,1.246892,0.3167243
87,1663243311738,-0.36467582,1.1442696,0.3423799
88,1663243311743,-0.38055784,1.0367606,0.37292224
89,1663243311743,-0.40377003,0.92069954,0.39735615
90,1663243311747,-0.41843036,0.8058602,0.4278985
91,1663243311747,-0.4355341,0.68979925,0.45477578
92,1663243311753,-0.44286427,0.57740337,0.48409647
93,1663243311753,-0.4538595,0.46867257,0.5121954
94,1663243311758,-0.46729815,0.37582377,0.5366293
95,1663243311758,-0.4734066,0.28786176,0.56595
96,1663243311762,-0.4831802,0.20845163,0.5891622
97,1663243311762,-0.50272727,0.14248012,0.6074876
98,1663243311768,-0.5088358,0.08872557,0.6282564
99,1663243311768,-0.52227443,0.048409645,0.6490252
100,1663243311772,-0.5430432,0.020310672,0.6649072
101,1663243311772,-0.54915166,-0.017561859,0.68323267
102,1663243311777,-0.57358557,-0.024892027,0.6954496
103,1663243311777,-0.5906893,-0.02611372,0.71010995
104,1663243311782,-0.6102364,-0.017561859,0.7235486
105,1663243311782,-0.6322269,-0.0077883024,0.72965705
106,1663243311787,-0.64810896,0.012980504,0.7406523
107,1663243311787,-0.6603259,0.04352287,0.75286925
108,1663243311792,-0.6737645,0.07406523,0.7589777
109,1663243311792,-0.68964654,0.11682454,0.7638645
110,1663243311797,-0.7006418,0.16447063,0.769973
111,1663243311797,-0.7067503,0.21089502,0.76875126
112,1663243311802,-0.71774554,0.26831466,0.77241635
113,1663243311802,-0.7189672,0.33672956,0.77363807
114,1663243311807,-0.71774554,0.3965926,0.77241635
115,1663243311807,-0.71285874,0.45034716,0.7785248
116,1663243311812,-0.69819844,0.51509696,0.77974653
117,1663243311812,-0.68231636,0.5822902,0.78096825
118,1663243311817,-0.6578825,0.6445966,0.78829837
119,1663243311817,-0.62856185,0.7117898,0.79440683
120,1663243311822,-0.60046285,0.782648,0.801737
121,1663243311822,-0.5674771,0.85106295,0.81151056
122,1663243311826,-0.5271612,0.9255863,0.8212841
123,1663243311826,-0.48928866,1.0062182,0.829836
124,1663243311832,-0.44530764,1.0880717,0.8408313
125,1663243311832,-0.4086568,1.1760337,0.8481614
126,1663243311836,-0.3695626,1.2591089,0.8567133
127,1663243311836,-0.33169007,1.3397408,0.85793495
128,1663243311841,-0.299926,1.4252594,0.86160004
129,1663243311841,-0.2754921,1.5071129,0.86526513
130,1663243311846,-0.25105822,1.5840796,0.8640435
131,1663243311846,-0.24128467,1.6537162,0.8603784
132,1663243311851,-0.22051586,1.7257962,0.85426986
133,1663243311851,-0.21074231,1.7917677,0.8408313
134,1663243311856,-0.20341213,1.8528525,0.82372755
135,1663243311857,-0.1887518,1.8931683,0.8054021
136,1663243311861,-0.17653486,1.9334843,0.7821899
137,1663243311861,-0.1655396,1.9408145,0.7589777
138,1663243311866,-0.14721419,1.922489,0.7321004
139,1663243311866,-0.13133216,1.9004985,0.70277977
140,1663243311871,-0.11545013,1.8577392,0.67834586
141,1663243311871,-0.08857285,1.7954328,0.6575771
142,1663243311877,-0.06902574,1.7282397,0.641695
143,1663243311877,-0.040926766,1.654938,0.6294781
144,1663243311881,-0.011606098,1.586523,0.6221479
145,1663243311881,0.021379653,1.5193298,0.6184828
146,1663243311886,0.06536066,1.4484715,0.61481774
147,1663243311886,0.08857285,1.3910519,0.6135961
148,1663243311891,0.1227803,1.3434058,0.61970454
149,1663243311891,0.15210097,1.2933164,0.62459135
150,1663243311896,0.17653486,1.2578872,0.6270347
151,1663243311896,0.20463383,1.23101,0.6343649
152,1663243311901,0.22906773,1.215128,0.63802993
153,1663243311901,0.24861483,1.2041327,0.63558656
154,1663243311905,0.2583884,1.1968025,0.6343649
155,1663243311906,0.26938364,1.1992459,0.62459135
156,1663243311911,0.26694027,1.1968025,0.6111527
157,1663243311911,0.2596101,1.1919158,0.59527063
158,1663243311916,0.24983653,1.1821421,0.5745019
159,1663243311916,0.23884128,1.162595,0.5622849
160,1663243311920,0.22662434,1.1442696,0.5427378
161,1663243311921,0.211964,1.1100621,0.5231907
162,1663243311925,0.20219044,1.0721897,0.51097375
163,1663243311925,0.19852535,1.0318737,0.4987568
164,1663243311930,0.18508671,0.9891144,0.48409647
165,1663243311930,0.18630841,0.93780327,0.47920966
166,1663243311936,0.17164809,0.8840487,0.46821442
167,1663243311936,0.16676131,0.81929886,0.46210596
168,1663243311940,0.1692047,0.75699246,0.45721918
169,1663243311940,0.17409147,0.69346434,0.449889
170,1663243311945,0.17775655,0.6384881,0.44500223
171,1663243311945,0.18019994,0.58106846,0.43767205
172,1663243311950,0.17775655,0.52242714,0.42545512
173,1663243311950,0.18264332,0.47600272,0.41445985
174,1663243311956,0.18019994,0.42224815,0.40224293
175,1663243311956,0.18508671,0.38559732,0.39002597
176,1663243311960,0.17897825,0.35872006,0.37536564
177,1663243311960,0.17409147,0.3245126,0.3582619
178,1663243311965,0.1655396,0.28908345,0.33749312
179,1663243311965,0.15210097,0.2597628,0.3167243
180,1663243311970,0.14232741,0.24143738,0.28740364
181,1663243311970,0.11911522,0.21089502,0.26174805
182,1663243311975,0.102011494,0.17546588,0.23120569
183,1663243311975,0.080020994,0.14492351,0.19821994
184,1663243311980,0.045813546,0.11438115,0.16523418
185,1663243311980,0.014049487,0.08261709,0.12858334
186,1663243311985,-0.025044737,0.04718795,0.089489125
187,1663243311985,-0.06291727,-0.00167983,0.04795151
188,1663243311991,-0.11178505,-0.03466558,-0.0021379655
189,1663243311991,-0.1655396,-0.07375981,-0.046118967
190,1663243311995,-0.211964,-0.11285403,-0.092543356
191,1663243311995,-0.26083177,-0.1446181,-0.14018944
192,1663243311999,-0.31458634,-0.18371232,-0.18539214
193,1663243312000,-0.35978904,-0.22769332,-0.23425992
194,1663243312004,-0.40377003,-0.26923093,-0.2831277
195,1663243312004,-0.44775105,-0.30588177,-0.33321717
196,1663243312009,-0.48440188,-0.3461977,-0.38208497
197,1663243312010,-0.5125008,-0.39140037,-0.42728767
198,1663243312014,-0.5393781,-0.4304946,-0.47493374
199,1663243312014,-0.563812,-0.46836713,-0.52135813
200,1663243312019,-0.5858025,-0.5123481,-0.56167406
201,1663243312020,-0.59557605,-0.54166883,-0.60443336
202,1663243312024,-0.60779303,-0.57343286,-0.64352757
203,1663243312024,-0.6212317,-0.608862,-0.6814001
204,1663243312029,-0.6310052,-0.6455128,-0.7192727
205,1663243312029,-0.62367505,-0.6956023,-0.7534801
206,1663243312034,-0.6310052,-0.7420267,-0.78280073
207,1663243312034,-0.62734014,-0.7945596,-0.8133431
208,1663243312039,-0.62245333,-0.8715263,-0.8438855
209,1663243312039,-0.6297835,-0.9350544,-0.8719845
210,1663243312044,-0.62245333,-1.0156863,-0.89764005
211,1663243312044,-0.62856185,-1.1073134,-0.9281824
212,1663243312049,-0.6407788,-1.1977187,-0.9550597
213,1663243312049,-0.6578825,-1.3052279,-0.98438036
214,1663243312054,-0.6762079,-1.4261756,-1.0149227
215,1663243312054,-0.7043069,-1.5556753,-1.0418
216,1663243312059,-0.7434011,-1.6949484,-1.0747857
217,1663243312059,-0.7898255,-1.8562121,-1.1053281
218,1663243312064,-0.8594621,-2.0138106,-1.1370921
219,1663243312064,-0.9205468,-2.1860697,-1.1676345
220,1663243312069,-0.9938485,-2.341225,-1.1957335
221,1663243312070,-1.072037,-2.4866066,-1.2226108
222,1663243312076,-1.2064233,-2.7333887,-1.2629267
223,1663243312079,-1.2626213,-2.807912,-1.2763654
224,1663243312079,-1.3188193,-2.8848789,-1.2849172
225,1663243312083,-1.3847908,-2.9178646,-1.2922474
226,1663243312084,-1.4373236,-2.9313033,-1.2946907
227,1663243312088,-1.4922998,-2.92886,-1.2922474
228,1663243312088,-1.5460544,-2.9068694,-1.2861389
229,1663243312093,-1.5961438,-2.8861005,-1.2727003
230,1663243312093,-1.6462333,-2.8543365,-1.2568183
231,1663243312099,-1.6987662,-2.8066905,-1.2384928
232,1663243312099,-1.7488557,-2.7541575,-1.2128372
233,1663243312103,-1.7989452,-2.6906295,-1.1810732
234,1663243312103,-1.8502563,-2.6148844,-1.1456441
235,1663243312108,-1.8966807,-2.5183706,-1.101663
236,1663243312108,-1.9369967,-2.4169698,-1.0515735
237,1663243312113,-1.9785342,-2.2996871,-0.9929322
238,1663243312113,-2.0164068,-2.1995082,-0.92085224
239,1663243312118,-2.0506144,-2.1103246,-0.84266376
240,1663243312118,-2.0799348,-2.0455747,-0.7583669
241,1663243312123,-2.108034,-1.9881551,-0.6691832
242,1663243312123,-2.1263592,-1.9673864,-0.573891
243,1663243312128,-2.152015,-1.9539477,-0.4810422
244,1663243312128,-2.187444,-1.9588344,-0.38697174
245,1663243312133,-2.215543,-1.9783815,-0.29656634
246,1663243312133,-2.2448637,-1.9796033,-0.2159345
247,1663243312138,-2.263189,-1.9796033,-0.1279725
248,1663243312138,-2.2815144,-1.9637213,-0.051005747
249,1663243312143,-2.2961748,-1.9417307,0.027182704
250,1663243312143,-2.294953,-1.8940847,0.105371155
251,1663243312148,-2.2778494,-1.8281131,0.17745113
252,1663243312148,-2.2668543,-1.7694718,0.2544179
253,1663243312153,-2.239977,-1.7108305,0.32527617
254,1663243312153,-2.2082129,-1.6656277,0.39735615
255,1663243312158,-2.1740055,-1.6692928,0.4731012
256,1663243312158,-2.1410196,-1.6729579,0.5464029
257,1663243312163,-2.0945952,-1.7059437,0.62092626
258,1663243312163,-2.0445058,-1.7438163,0.6893411
259,1663243312167,-2.0005248,-1.8073443,0.75409096
260,1663243312168,-1.9467702,-1.8720942,0.82006246
261,1663243312172,-1.8942374,-1.9405091,0.8762604
262,1663243312173,-1.839261,-2.0015938,0.92757154
263,1663243312177,-1.7830632,-2.0626786,0.97155255
264,1663243312178,-1.7244219,-2.1188765,1.00576
265,1663243312182,-1.6743324,-2.1750743,1.0314156
266,1663243312182,-1.6217995,-2.2214987,1.0472976
267,1663243312187,-1.5631582,-2.2642581,1.0558494
268,1663243312187,-1.524064,-2.3033524,1.0509627
269,1663243312192,-1.4764178,-2.3424466,1.0277505
270,1663243312192,-1.4312152,-2.364437,0.9813261
271,1663243312197,-1.3799039,-2.3632154,0.90924615
272,1663243312197,-1.3261493,-2.3436682,0.8066238
273,1663243312202,-1.2638429,-2.3192344,0.6807893
274,1663243312202,-1.2003149,-2.288692,0.52929914
275,1663243312207,-1.1282349,-2.2532628,0.36070532
276,1663243312207,-1.0500464,-2.223942,0.17378604
277,1663243312212,-0.95597595,-2.2117252,-0.018019995
278,1663243312213,-0.868014,-2.2068384,-0.20371756
279,1663243312217,-0.7702784,-2.2190554,-0.38208497
280,1663243312217,-0.6566608,-2.252041,-0.54090524
281,1663243312222,-0.5454866,-2.276475,-0.6801784
282,1663243312222,-0.4111002,-2.2935789,-0.7974611
283,1663243312227,-0.28526568,-2.3216777,-0.8878665
284,1663243312227,-0.1447708,-2.3448899,-0.9587248
285,1663243312232,-0.005497625,-2.3534417,-1.0075926
286,1663243312232,0.14599249,-2.3693237,-1.0344698
287,1663243312237,0.299926,-2.376654,-1.0466868
288,1663243312237,0.4379775,-2.3742106,-1.0393566
289,1663243312242,0.59557605,-2.348555,-1.0161444
290,1663243312242,0.7434011,-2.3119042,-0.9941539
291,1663243312247,0.8913789,-2.2581496,-0.95628136
292,1663243312247,1.0208784,-2.2056167,-0.9196305
293,1663243312252,1.1393828,-2.1433103,-0.8756496
294,1663243312252,1.2578872,-2.072452,-0.821895
295,1663243312256,1.3531793,-2.012589,-0.7705838
296,1663243312257,1.4435848,-1.9466175,-0.7156076
297,1663243312261,1.5217732,-1.8696507,-0.6581879
298,1663243312261,1.5950749,-1.7877972,-0.60321164
299,1663243312266,1.6622682,-1.6876183,-0.5506788
300,1663243312266,1.7245746,-1.588661,-0.49692425
301,1663243312271,1.7832159,-1.5043641,-0.4407263
302,1663243312271,1.8333054,-1.4359492,-0.37597647
303,1663243312276,1.8858382,-1.3883032,-0.3051182
304,1663243312276,1.9285975,-1.3516523,-0.23303823
305,1663243312281,1.9701351,-1.3186666,-0.15729317
306,1663243312281,2.0080078,-1.2844591,-0.08521319
307,1663243312286,2.04588,-1.2551384,-0.014354911
308,1663243312286,2.0910828,-1.2270395,0.051616594
309,1663243312291,2.1399508,-1.2013838,0.111479625
310,1663243312291,2.1924834,-1.1793933,0.16279079
311,1663243312296,2.2511249,-1.1574029,0.21165858
312,1663243312296,2.314653,-1.1464076,0.24708772
313,1663243312301,2.3769593,-1.1354123,0.27640837
314,1663243312301,2.4453743,-1.1341907,0.30206397
315,1663243312306,2.5150108,-1.136634,0.317946
316,1663243312306,2.5773172,-1.1402991,0.32771957
317,1663243312311,2.6530623,-1.1683981,0.33382803
318,1663243312311,2.7129254,-1.1952754,0.33138463
319,1663243312316,2.7788968,-1.2392564,0.32527617
320,1663243312316,2.8412032,-1.2942326,0.3191677
321,1663243312321,2.898623,-1.3589824,0.30817243
322,1663243312321,2.9474907,-1.4273974,0.3008423
323,1663243312325,2.993915,-1.4982556,0.29229042
324,1663243312326,3.0317876,-1.5703356,0.28129515
325,1663243312331,3.0659952,-1.6277553,0.27640837
326,1663243312331,3.094094,-1.6815097,0.2678565
327,1663243312336,3.1002026,-1.7254908,0.2544179
328,1663243312336,3.1136413,-1.7450379,0.24464433
329,1663243312341,3.1136413,-1.7462596,0.23242739
330,1663243312341,3.098981,-1.7352643,0.21654536
331,1663243312346,3.078212,-1.7218257,0.20066333
332,1663243312346,3.0525565,-1.6937268,0.17622943
333,1663243312350,3.0134623,-1.6460806,0.14690876
334,1663243312350,2.974368,-1.5837742,0.10903624
335,1663243312356,2.9267218,-1.5068074,0.06627693
336,1663243312356,2.8741891,-1.4212888,0.030847786
337,1663243312360,2.819213,-1.3321052,-0.00335966
338,1663243312361,2.7569065,-1.2453649,-0.037567105
339,1663243312365,2.6958218,-1.1696198,-0.06322269
340,1663243312365,2.6371803,-1.1024266,-0.088878274
341,1663243312370,2.578539,-1.0401201,-0.110868774
342,1663243312370,2.5198977,-0.97537035,-0.1291942
343,1663243312376,2.469808,-0.9155073,-0.14263284
344,1663243312376,2.418497,-0.8641962,-0.15362808
345,1663243312380,2.378181,-0.81166327,-0.15607147
346,1663243312380,2.3366435,-0.77745587,-0.15851486
347,1663243312386,2.3073227,-0.7469135,-0.15607147
348,1663243312386,2.2841105,-0.7151494,-0.14263284
349,1663243312391,2.2572334,-0.6919372,-0.12552911
350,1663243312391,2.2376862,-0.6760552,-0.10353861
351,1663243312396,2.2242477,-0.66750336,-0.07177455
352,1663243312396,2.2071438,-0.64673454,-0.03634541
353,1663243312401,2.1961486,-0.6296308,0.006413896
354,1663243312401,2.174158,-0.6223006,0.05283829
355,1663243312405,2.1497242,-0.60397524,0.101706065
356,1663243312406,2.1240687,-0.5795413,0.15790401
357,1663243312411,2.0910828,-0.55388576,0.21532366
358,1663243312411,2.0446584,-0.52945185,0.26907822
359,1663243312416,1.9896822,-0.5037963,0.3130592
360,1663243312416,1.9334843,-0.46470204,0.35337514
361,1663243312420,1.8699561,-0.4378248,0.3826958
362,1663243312420,1.7929894,-0.40606073,0.40224293
363,1663243312426,1.7160226,-0.35352784,0.4107948
364,1663243312426,1.6353909,-0.31321192,0.40957308
365,1663243312430,1.5498722,-0.26800925,0.39735615
366,1663243312430,1.4777923,-0.22524993,0.37780902
367,1663243312435,1.3996037,-0.18371232,0.35215345
368,1663243312435,1.3287455,-0.13728791,0.3203894
369,1663243312440,1.2530005,-0.09941539,0.28618193
370,1663243312440,1.1894723,-0.062764555,0.2483094
371,1663243312445,1.1320527,-0.038330667,0.2043284
372,1663243312445,1.0795199,-0.028557109,0.16401249
373,1663243312450,1.0343171,-0.020005248,0.1163664
374,1663243312450,0.9927795,-0.018783553,0.0723854
375,1663243312454,0.95612866,-0.024892027,0.028404398
376,1663243312454,0.9280297,-0.035887275,-0.015576605
377,1663243312460,0.9060392,-0.055434387,-0.05955761
378,1663243312460,0.89260054,-0.07986828,-0.098651834
379,1663243312465,0.8803836,-0.11407573,-0.13896775
380,1663243312465,0.8754968,-0.15805672,-0.1731752
381,1663243312470,0.8791619,-0.20325942,-0.20616095
382,1663243312470,0.8864921,-0.2582357,-0.23548162
383,1663243312474,0.8840487,-0.2997733,-0.2562504
384,1663243312474,0.89260054,-0.35230616,-0.27335414
385,1663243312480,0.8999307,-0.38284853,-0.2855711
386,1663243312480,0.91825616,-0.4121692,-0.29656634
387,1663243312484,0.93535984,-0.4341597,-0.3014531
388,1663243312485,0.93780327,-0.44393325,-0.3014531
389,1663243312490,0.94269,-0.4500417,-0.29778802
390,1663243312490,0.93658155,-0.4341597,-0.29167956
391,1663243312495,0.92069954,-0.41583428,-0.27824092
392,1663243312495,0.90970427,-0.3865136,-0.2623589
393,1663243312500,0.8877138,-0.35230616,-0.2415901
394,1663243312500,0.8596148,-0.30954686,-0.21349111
395,1663243312505,0.8217423,-0.2509055,-0.18539214
396,1663243312505,0.7898255,-0.19837265,-0.15484978
397,1663243312510,0.75195295,-0.13606623,-0.11942064
398,1663243312510,0.71041536,-0.07375981,-0.09009997
399,1663243312515,0.66765606,-0.01267508,-0.05955761
400,1663243312515,0.62489676,0.056961507,-0.02535016
401,1663243312519,0.57358557,0.11682454,-0.00335966
402,1663243312519,0.5247178,0.17302248,0.019852536
403,1663243312524,0.4770717,0.22799873,0.038177952
404,1663243312524,0.42576054,0.2817533,0.051616594
405,1663243312529,0.38300124,0.33184278,0.06627693
406,1663243312529,0.33779854,0.3892624,0.07849387
407,1663243312534,0.299926,0.44301698,0.08704574
408,1663243312534,0.26449686,0.49799323,0.09681929
409,1663243312539,0.23517619,0.5431959,0.10414946
410,1663243312539,0.2131857,0.5822902,0.11270132
411,1663243312543,0.19486028,0.6164976,0.117588095
412,1663243312544,0.15454435,0.6568135,0.1163664
413,1663243312549,0.14110571,0.67391723,0.117588095
414,1663243312549,0.12644538,0.69468606,0.11270132
415,1663243312554,0.11056335,0.7056813,0.10292777
416,1663243312554,0.09101624,0.7117898,0.09681929
417,1663243312558,0.08490777,0.69835114,0.09071082
418,1663243312558,0.06902574,0.67391723,0.08460235
419,1663243312563,0.05803049,0.62871456,0.083380654
420,1663243312564,0.043370154,0.5822902,0.07849387
421,1663243312570,0.033596598,0.530979,0.07727218
422,1663243312570,0.02260135,0.4833329,0.07727218
423,1663243312573,0.011606098,0.4381302,0.0723854
424,1663243312573,0.005497625,0.40025768,0.073607095
425,1663243312594,0.00671932,0.370937,0.07116371
426,1663243312594,0.007941014,0.35261157,0.06261184
427,1663243312594,0.007941014,0.33672956,0.046729814
428,1663243312594,0.00671932,0.33184278,0.019852536
429,1663243312595,0.010384403,0.31596074,-0.010689827
430,1663243312595,0.009162709,0.29885703,-0.048562355
431,1663243312595,-0.00061084726,0.27564484,-0.098651834
432,1663243312595,-0.012827792,0.24388076,-0.1511847
433,1663243312598,-0.025044737,0.19745637,-0.20982604
434,1663243312598,-0.04703524,0.15836215,-0.27579755
435,1663243312603,-0.064138964,0.11560284,-0.33688226
436,1663243312603,-0.0787993,0.069178455,-0.3943019
437,1663243312608,-0.0787993,0.028862532,-0.4456131
438,1663243312608,-0.09834641,-0.0029015245,-0.49936762
439,1663243312613,-0.09101624,-0.022448637,-0.53724015
440,1663243312613,-0.08246438,-0.048104223,-0.56533915
441,1663243312618,-0.0555871,-0.0762032,-0.5763344
442,1663243312618,-0.043370154,-0.084755056,-0.58366454
443,1663243312624,-0.028709821,-0.094528615,-0.5763344
444,1663243312624,0.0018325418,-0.11285403,-0.5628958
445,1663243312629,0.028709821,-0.12384928,-0.5396836
446,1663243312629,0.05314371,-0.116519116,-0.51402795
447,1663243312633,0.067804046,-0.11529742,-0.48592898
448,1663243312634,0.08124269,-0.110410646,-0.45294324
449,1663243312638,0.08979455,-0.09208523,-0.4162924
450,1663243312638,0.092237934,-0.06765133,-0.37964156
451,1663243312643,0.08857285,-0.040774055,-0.34054735
452,1663243312643,0.067804046,-0.018783553,-0.3014531
453,1663243312648,0.049478628,0.01175881,-0.2599155
454,1663243312648,0.018936265,0.050853033,-0.22448637
455,1663243312652,-0.010384403,0.08994726,-0.18783553
456,1663243312652,-0.049478628,0.13148487,-0.15607147
457,1663243312657,-0.08979455,0.1693574,-0.1291942
458,1663243312657,-0.13866232,0.20722993,-0.104760304
459,1663243312663,-0.18630841,0.23532891,-0.086434886
460,1663243312663,-0.24006297,0.26342788,-0.07910472
461,1663243312667,-0.29015246,0.29030517,-0.07177455
462,1663243312667,-0.33657685,0.30985227,-0.074217945
463,1663243312673,-0.38177955,0.3306211,-0.07543964
464,1663243312673,-0.41965207,0.35261157,-0.0827698
465,1663243312678,-0.4550812,0.36116344,-0.09376506
466,1663243312678,-0.48806697,0.3697153,-0.10353861
467,1663243312682,-0.51005745,0.3721587,-0.11331217
468,1663243312682,-0.5308263,0.3721587,-0.12552911
469,1663243312688,-0.5442649,0.36482853,-0.13530266
470,1663243312688,-0.55648184,0.3477248,-0.14751962
471,1663243312692,-0.5625903,0.33184278,-0.16095825
472,1663243312692,-0.56136864,0.31229568,-0.17439689
473,1663243312697,-0.55403847,0.29519194,-0.19027892
474,1663243312697,-0.5430432,0.27197975,-0.20616095
475,1663243312702,-0.5271612,0.2597628,-0.22204298
476,1663243312704,-0.5088358,0.24754585,-0.24525517
477,1663243312707,-0.48684525,0.23899399,-0.2623589
478,1663243312707,-0.4575246,0.2377723,-0.28068432
479,1663243312712,-0.4306473,0.23899399,-0.3051182
480,1663243312712,-0.40010494,0.23899399,-0.31977853
481,1663243312716,-0.37200597,0.24265908,-0.33932567
482,1663243312716,-0.343907,0.2365506,-0.353986
483,1663243312721,-0.3231382,0.23166382,-0.3710897
484,1663243312721,-0.3035911,0.22311196,-0.39063683
485,1663243312727,-0.28770906,0.2133384,-0.40774053
486,1663243312727,-0.27060533,0.20600824,-0.42484426
487,1663243312732,-0.25350162,0.20112146,-0.44439137
488,1663243312732,-0.24128467,0.20356485,-0.4639385
489,1663243312736,-0.22662434,0.20967332,-0.48226392
490,1663243312736,-0.211964,0.22189027,-0.50303274
491,1663243312741,-0.19852535,0.2365506,-0.5201364
492,1663243312742,-0.18753012,0.25365433,-0.54090524
493,1663243312746,-0.17042638,0.26709297,-0.5531222
494,1663243312747,-0.15576605,0.27686653,-0.56533915
495,1663243312751,-0.14232741,0.28908345,-0.5702259
496,1663243312751,-0.12644538,0.29030517,-0.5714476
497,1663243312756,-0.10934166,0.28786176,-0.5726693
498,1663243312756,-0.09101624,0.2793099,-0.5714476
499,1663243312762,-0.07513421,0.27197975,-0.5677825
500,1663243312762,-0.05803049,0.26831466,-0.55678725
501,1663243312766,-0.040926766,0.2597628,-0.54945713
502,1663243312767,-0.02260135,0.2560977,-0.5347968
503,1663243312771,-0.004275931,0.26342788,-0.51769304
504,1663243312771,0.011606098,0.2793099,-0.5042544
505,1663243312777,0.021379653,0.3025221,-0.49203748
506,1663243312777,0.033596598,0.3257343,-0.47249034
507,1663243312781,0.040926766,0.35872006,-0.45294324
508,1663243312781,0.033596598,0.38559732,-0.43217444
509,1663243312786,0.02260135,0.41003123,-0.40651885
510,1663243312786,0.005497625,0.4393519,-0.38208497
511,1663243312791,-0.02260135,0.46745086,-0.35642937
512,1663243312791,-0.059252184,0.5126536,-0.32588702
513,1663243312796,-0.10567658,0.5664081,-0.28679278
514,1663243312796,-0.15332267,0.5896203,-0.24525517
515,1663243312801,-0.19486028,0.5871769,-0.20738265
516,1663243312801,-0.2327328,0.56518644,-0.1719535
517,1663243312806,-0.26571855,0.54075253,-0.13652436
518,1663243312806,-0.29381752,0.51021016,-0.11209047
519,1663243312810,-0.31947312,0.49188477,-0.088878274
520,1663243312810,-0.33902022,0.47478104,-0.07543964
521,1663243312815,-0.35612395,0.46500748,-0.06810947
522,1663243312816,-0.3732277,0.4576773,-0.06688777
523,1663243312820,-0.387888,0.45523393,-0.07177455
524,1663243312820,-0.39766157,0.45645562,-0.08521319
525,1663243312825,-0.40621343,0.458899,-0.105982
526,1663243312825,-0.4086568,0.46500748,-0.13408098
527,1663243312830,-0.40254834,0.46867257,-0.16706672
528,1663243312830,-0.39643988,0.47844613,-0.20860434
529,1663243312835,-0.387888,0.49310645,-0.25502872
530,1663243312835,-0.3683409,0.5077668,-0.29778802
531,1663243312840,-0.35245886,0.53830916,-0.34665582
532,1663243312840,-0.33291176,0.57740337,-0.39185852
533,1663243312845,-0.31214294,0.62260604,-0.43095273
534,1663243312845,-0.29259583,0.6800257,-0.46760356
535,1663243312850,-0.27304873,0.73255855,-0.49936762
536,1663243312850,-0.255945,0.7899782,-0.5274666
537,1663243312855,-0.24372806,0.8437328,-0.54945713
538,1663243312855,-0.22906773,0.8913789,-0.5628958
539,1663243312860,-0.22295925,0.9316948,-0.573891
540,1663243312861,-0.22418094,0.9659022,-0.57999945
541,1663243312865,-0.22906773,0.99155784,-0.5824429
542,1663243312865,-0.2339545,1.01477,-0.5787778
543,1663243312870,-0.23884128,1.0673028,-0.5775561
544,1663243312870,-0.24006297,1.1210574,-0.5775561
545,1663243312875,-0.24372806,1.1723686,-0.573891
546,1663243312875,-0.24861483,1.2261232,-0.56533915
547,1663243312880,-0.25350162,1.2810994,-0.54945713
548,1663243312880,-0.2596101,1.3336322,-0.5347968
549,1663243312885,-0.26571855,1.3837217,-0.51524967
550,1663243312885,-0.2754921,1.4240377,-0.49325916
551,1663243312889,-0.2816006,1.466797,-0.47249034
552,1663243312890,-0.28648737,1.5083346,-0.45172155
553,1663243312894,-0.28893074,1.5510939,-0.42728767
554,1663243312895,-0.29626092,1.5914098,-0.40163207
555,1663243312899,-0.2974826,1.6341691,-0.369868
556,1663243312899,-0.3023694,1.6695982,-0.33321717
557,1663243312905,-0.30603448,1.6769284,-0.30267483
558,1663243312905,-0.3048128,1.6659331,-0.26846737
559,1663243312909,-0.3035911,1.6488295,-0.2391467
560,1663243312910,-0.3011477,1.6378342,-0.21349111
561,1663243312914,-0.3011477,1.6317258,-0.18539214
562,1663243312914,-0.3023694,1.6207305,-0.15851486
563,1663243312919,-0.30725616,1.6048485,-0.13530266
564,1663243312920,-0.30969957,1.5853014,-0.10964708
565,1663243312924,-0.31580803,1.5633109,-0.088878274
566,1663243312925,-0.31947312,1.5352119,-0.06566608
567,1663243312929,-0.3206948,1.4961176,-0.04367558
568,1663243312929,-0.31947312,1.4545801,-0.030236939
569,1663243312934,-0.30603448,1.410599,-0.014354911
570,1663243312934,-0.28893074,1.3653964,-0.0009162709
571,1663243312939,-0.26449686,1.3226371,0.006413896
572,1663243312939,-0.23517619,1.278656,0.013744064
573,1663243312944,-0.19852535,1.2273449,0.022295926
574,1663243312944,-0.15820944,1.1760337,0.024739314
575,1663243312949,-0.11667182,1.1271659,0.029626092
576,1663243312949,-0.0775776,1.0892934,0.027182704
577,1663243312954,-0.034818295,1.0453124,0.028404398
578,1663243312954,-0.00061084726,1.011105,0.029626092
579,1663243312959,0.027488127,0.9768975,0.029626092
580,1663243312959,0.054365408,0.9487985,0.03939965
581,1663243312965,0.073912516,0.90970427,0.043064732
582,1663243312965,0.086129464,0.84984124,0.0503949
583,1663243312968,0.09468132,0.7863131,0.05650337
584,1663243312969,0.099568106,0.7203416,0.06139015
585,1663243312974,0.09345963,0.6421532,0.067498624
586,1663243312974,0.08124269,0.5505261,0.073607095
587,1663243312978,0.061695572,0.4417953,0.07605048
588,1663243312979,0.033596598,0.3232909,0.08582404
589,1663243312984,-0.0030542363,0.20600824,0.08582404
590,1663243312984,-0.04214846,0.07650862,0.09071082
591,1663243312989,-0.08490777,-0.052991,0.08826743
592,1663243312989,-0.1227803,-0.17516045,0.07849387
593,1663243312994,-0.15820944,-0.2753394,0.06261184
594,1663243312994,-0.18386503,-0.34986275,0.041843038
595,1663243312999,-0.19730367,-0.41339087,0.019852536
596,1663243312999,-0.20463383,-0.4537068,-0.0070247436
597,1663243313004,-0.20096874,-0.48669255,-0.033902023
598,1663243313004,-0.18264332,-0.50746137,-0.05467083
599,1663243313008,-0.15943113,-0.51845664,-0.070552856
600,1663243313008,-0.12888877,-0.52578676,-0.08521319
601,1663243313013,-0.09834641,-0.5245651,-0.08765658
602,1663243313013,-0.061695572,-0.5233434,-0.080326416
603,1663243313018,-0.028709821,-0.51845664,-0.06810947
604,1663243313018,0.004275931,-0.50746137,-0.04367558
605,1663243313023,0.034818295,-0.50257456,-0.016798299
606,1663243313024,0.061695572,-0.49768782,0.014965758
607,1663243313028,0.083686076,-0.49280104,0.046729814
608,1663243313028,0.10445488,-0.49157932,0.079715565
609,1663243313033,0.11911522,-0.48791423,0.11392301
610,1663243313033,0.13255386,-0.49035764,0.14324369
611,1663243313038,0.13988402,-0.49402273,0.16767757
612,1663243313038,0.15087928,-0.4989095,0.19333316
613,1663243313043,0.15576605,-0.50257456,0.21410197
614,1663243313043,0.16187452,-0.51356983,0.23120569
615,1663243313048,0.15943113,-0.51845664,0.24342263
616,1663243313048,0.16187452,-0.5282302,0.25319618
617,1663243313053,0.15943113,-0.53800374,0.26052636
618,1663243313053,0.15576605,-0.5392254,0.26419145
619,1663243313058,0.14843589,-0.5441122,0.26541314
620,1663243313058,0.14110571,-0.5441122,0.26663482
621,1663243313063,0.13377555,-0.54166883,0.26296973
622,1663243313064,0.12155861,-0.5318953,0.25808296
623,1663243313071,0.114228435,-0.51845664,0.25563958
624,1663243313072,0.1007898,-0.4952444,0.23364908
625,1663243313073,0.09590302,-0.4573719,0.19455485
626,1663243313073,0.09345963,-0.4072824,0.15423894
627,1663243314077,-1.3188193,2.0837526,-0.12186403
628,1663243314106,-1.3542484,2.0568755,-0.12186403
629,1663243314106,-1.3762388,2.010451,-0.1279725
630,1663243314106,-1.3896775,1.9493663,-0.13530266
631,1663243314106,-1.3933426,1.874843,-0.149963
632,1663243314106,-1.3799039,1.7893243,-0.16584504
633,1663243314107,-1.3542484,1.6928104,-0.18539214
634,1663243314107,-1.3127108,1.5914098,-0.20371756
635,1663243314107,-1.2638429,1.4802356,-0.22326468
636,1663243314107,-1.1966498,1.3605095,-0.2403684
637,1663243314107,-1.119683,1.2358967,-0.25258535
638,1663243314107,-1.0329428,1.1063972,-0.2635806
639,1663243314107,-0.9352071,0.970789,-0.26480228
640,1663243314108,-0.8362499,0.83518094,-0.27213246
641,1663243314108,-0.72874075,0.69835114,-0.26846737
642,1663243314113,-0.62000996,0.5664081,-0.2599155
643,1663243314113,-0.5015056,0.44057357,-0.25136364
644,1663243314118,-0.3927748,0.3232909,-0.24281178
645,1663243314118,-0.28648737,0.2170035,-0.23548162
646,1663243314123,-0.18019994,0.12293301,-0.22204298
647,1663243314123,-0.083686076,0.041079476,-0.2171562
648,1663243314128,0.0030542363,-0.028557109,-0.20738265
649,1663243314128,0.076355904,-0.100637086,-0.20005247
650,1663243314133,0.14110571,-0.16050012,-0.193944
651,1663243314133,0.19241689,-0.21547636,-0.19027892
652,1663243314138,0.2339545,-0.26923093,-0.18539214
653,1663243314139,0.26449686,-0.3193204,-0.18294875
654,1663243314144,0.28404397,-0.3645231,-0.18417045
655,1663243314144,0.29503924,-0.40117395,-0.18539214
656,1663243314148,0.299926,-0.4341597,-0.18417045
657,1663243314148,0.2974826,-0.4524851,-0.18539214
658,1663243314153,0.2816006,-0.4573719,-0.18661384
659,1663243314153,0.26327518,-0.44882002,-0.18539214
660,1663243314158,0.23884128,-0.4317163,-0.17928366
661,1663243314158,0.211964,-0.4072824,-0.16828842
662,1663243314163,0.17653486,-0.37674004,-0.15729317
663,1663243314163,0.14232741,-0.34497598,-0.13896775
664,1663243314168,0.099568106,-0.31076854,-0.11942064
665,1663243314168,0.054365408,-0.27289602,-0.09376506
666,1663243314173,0.007941014,-0.22036316,-0.06566608
667,1663243314173,-0.045813546,-0.13117945,-0.03634541
668,1663243314177,-0.1007898,0.0056503373,-0.0009162709
669,1663243314177,-0.167983,0.18401773,0.040621344
670,1663243314183,-0.23884128,0.37826717,0.089489125
671,1663243314183,-0.31336465,0.55663455,0.13469182
672,1663243314188,-0.39643988,0.6995728,0.17989452
673,1663243314188,-0.47096324,0.78509146,0.2275406
674,1663243314193,-0.5467083,0.83029413,0.26541314
675,1663243314193,-0.62000996,0.86938834,0.2959555
676,1663243314197,-0.68720317,0.9145911,0.32405448
677,1663243314198,-0.7543964,0.9695673,0.34115818
678,1663243314203,-0.81181604,1.0294304,0.35093176
679,1663243314203,-0.8594621,1.0819632,0.35337514
680,1663243314208,-0.9009997,1.1112839,0.34360158
681,1663243314208,-0.9315421,1.1186141,0.33016294
682,1663243314213,-0.95719767,1.1100621,0.30450734
683,1663243314213,-0.9694146,1.083185,0.2702999
684,1663243314218,-0.9767448,1.0501992,0.2287623
685,1663243314218,-0.97185796,1.01477,0.17622943
686,1663243314223,-0.96086276,0.9732324,0.11514471
687,1663243314223,-0.94131565,0.9243646,0.054059982
688,1663243314227,-0.91443837,0.8803836,-0.010689827
689,1663243314228,-0.8802309,0.8339592,-0.07543964
690,1663243314232,-0.83869326,0.7911999,-0.13285927
691,1663243314233,-0.7947123,0.7459972,-0.18783553
692,1663243314237,-0.7470662,0.6971294,-0.23548162
693,1663243314237,-0.7006418,0.64337486,-0.27457583
694,1663243314242,-0.6566608,0.58595526,-0.31000498
695,1663243314242,-0.60779303,0.5248705,-0.3307738
696,1663243314247,-0.5699205,0.4601207,-0.34665582
697,1663243314247,-0.535713,0.40514445,-0.35276428
698,1663243314252,-0.5015056,0.35261157,-0.34909922
699,1663243314252,-0.46974155,0.3025221,-0.33810395
700,1663243314257,-0.44164258,0.25365433,-0.32100025
701,1663243314257,-0.41354358,0.21089502,-0.29778802
702,1663243314262,-0.38666633,0.17057909,-0.26968905
703,1663243314262,-0.3671192,0.14248012,-0.24403349
704,1663243314267,-0.3475721,0.12659809,-0.2159345
705,1663243314267,-0.3219165,0.12781979,-0.1927223
706,1663243314272,-0.28404397,0.18035266,-0.18539214
707,1663243314272,-0.24494976,0.22066857,-0.17684028
708,1663243314278,-0.20585553,0.22189027,-0.16828842
709,1663243314278,-0.18142164,0.20722993,-0.15851486
710,1663243314282,-0.15820944,0.17424418,-0.14141114
711,1663243314282,-0.14110571,0.1241547,-0.120642334
712,1663243314287,-0.13744064,0.059404895,-0.098651834
713,1663243314287,-0.13744064,-0.011453386,-0.072996244
714,1663243314292,-0.15210097,-0.09086353,-0.05467083
715,1663243314292,-0.16309622,-0.17149536,-0.03634541
716,1663243314297,-0.18019994,-0.2509055,-0.02535016
717,1663243314298,-0.19241689,-0.3205421,-0.016798299
718,1663243314302,-0.19974706,-0.3816268,-0.013133216
719,1663243314302,-0.20096874,-0.4280512,-0.014354911
720,1663243314306,-0.19852535,-0.4561502,-0.019241689
721,1663243314307,-0.17775655,-0.47203222,-0.016798299
722,1663243314311,-0.16065283,-0.46714544,-0.022906773
723,1663243314311,-0.13621894,-0.4561502,-0.020463383
724,1663243314318,-0.11178505,-0.4378248,-0.018019995
725,1663243314318,-0.08857285,-0.4097258,-0.015576605
726,1663243314322,-0.06658235,-0.38040513,-0.009468133
727,1663243314322,-0.048256934,-0.34864107,0.00030542363
728,1663243314326,-0.038483378,-0.31809872,0.008857286
729,1663243314326,-0.03115321,-0.28755635,0.019852536
730,1663243314331,-0.027488127,-0.2582357,0.036956258
731,1663243314332,-0.034818295,-0.22402823,0.049173206
732,1663243314337,-0.040926766,-0.18982078,0.06139015
733,1663243314337,-0.05803049,-0.15072656,0.06872032
734,1663243314342,-0.07146913,-0.11285403,0.07482879
735,1663243314342,-0.08857285,-0.07375981,0.07849387
736,1663243314346,-0.10934166,-0.033443887,0.07727218
737,1663243314347,-0.12644538,0.003206948,0.07605048
738,1663243314351,-0.1447708,0.03863609,0.073607095
739,1663243314351,-0.16065283,0.07040015,0.067498624
740,1663243314357,-0.17653486,0.09483404,0.058946762
741,1663243314357,-0.1899735,0.119267926,0.0503949
742,1663243314362,-0.19852535,0.13759334,0.03939965
743,1663243314363,-0.20463383,0.15469708,0.029626092
744,1663243314367,-0.20463383,0.16691402,0.017409148
745,1663243314368,-0.19730367,0.18523943,0.006413896
746,1663243314372,-0.18264332,0.20234315,-0.00335966
747,1663243314372,-0.16676131,0.22311196,-0.018019995
748,1663243314376,-0.1447708,0.24632415,-0.021685077
749,1663243314376,-0.12033691,0.27442312,-0.026571855
750,1663243314381,-0.08857285,0.3013004,-0.02779355
751,1663243314381,-0.060473878,0.33550787,-0.021685077
752,1663243314385,-0.027488127,0.3721587,-0.016798299
753,1663243314385,0.00061084726,0.40636614,-0.005803049
754,1663243314391,0.032374904,0.44057357,0.011300675
755,1663243314391,0.06291727,0.47355935,0.024739314
756,1663243314395,0.09101624,0.51387525,0.03939965
757,1663243314396,0.12644538,0.5725166,0.051616594
758,1663243314400,0.16065283,0.62749285,0.057725064
759,1663243314400,0.19608197,0.6641437,0.067498624
760,1663243314405,0.21929416,0.6849125,0.07727218
761,1663243314405,0.23517619,0.69346434,0.083380654
762,1663243314410,0.24006297,0.6922427,0.0943759
763,1663243314410,0.24006297,0.6824691,0.101706065
764,1663243314415,0.2339545,0.6568135,0.10903624
765,1663243314416,0.21807247,0.6299362,0.11392301
766,1663243314420,0.20096874,0.5932854,0.1163664
767,1663243314420,0.17653486,0.5541912,0.117588095
768,1663243314426,0.15210097,0.5053234,0.11514471
769,1663243314426,0.12522368,0.4601207,0.11392301
770,1663243314431,0.1007898,0.414918,0.11270132
771,1663243314431,0.073912516,0.37948886,0.10048437
772,1663243314435,0.051922016,0.3538333,0.09681929
773,1663243314435,0.034818295,0.33184278,0.08582404
774,1663243314440,0.017714571,0.32206923,0.07482879
775,1663243314440,0.007941014,0.31962582,0.06627693
776,1663243314446,0.005497625,0.31840414,0.05650337
777,1663243314446,0.004275931,0.3208475,0.049173206
778,1663243314450,0.010384403,0.32206923,0.04550812
779,1663243314450,0.012827792,0.3281777,0.038177952
780,1663243314455,0.016492875,0.33428615,0.036956258
781,1663243314455,0.027488127,0.33550787,0.038177952
782,1663243314459,0.032374904,0.34039465,0.041843038
783,1663243314460,0.040926766,0.33795124,0.046729814
784,1663243314465,0.043370154,0.33550787,0.046729814
785,1663243314465,0.040926766,0.33428615,0.04550812
786,1663243314470,0.04214846,0.33184278,0.0503949
787,1663243314470,0.037261683,0.3281777,0.054059982
788,1663243314475,0.03115321,0.3245126,0.051616594
789,1663243314475,0.017714571,0.3257343,0.051616594
790,1663243314480,0.004275931,0.31962582,0.046729814
791,1663243314480,-0.012827792,0.3208475,0.040621344
792,1663243314485,-0.033596598,0.3232909,0.032069482
793,1663243314485,-0.051922016,0.31962582,0.025961008
794,1663243314490,-0.07513421,0.31473905,0.017409148
795,1663243314490,-0.099568106,0.31229568,0.0015271181
796,1663243314495,-0.12522368,0.31473905,-0.0070247436
797,1663243314495,-0.15087928,0.31596074,-0.018019995
798,1663243314499,-0.17531316,0.31351736,-0.030236939
799,1663243314500,-0.19852535,0.31718245,-0.040010497
800,1663243314504,-0.21562909,0.31962582,-0.044897273
801,1663243314504,-0.23884128,0.32206923,-0.055892523
802,1663243314509,-0.2547233,0.3232909,-0.05833591
803,1663243314510,-0.26694027,0.3232909,-0.064444385
804,1663243314513,-0.2791572,0.3245126,-0.06810947
805,1663243314514,-0.28526568,0.3257343,-0.06933116
806,1663243314521,-0.29015246,0.3257343,-0.072996244
807,1663243314521,-0.29259583,0.326956,-0.070552856
808,1663243314524,-0.28893074,0.3281777,-0.064444385
809,1663243314524,-0.28648737,0.3257343,-0.06322269
810,1663243314528,-0.2791572,0.3208475,-0.053449135
811,1663243314529,-0.27304873,0.31473905,-0.051005747
812,1663243314533,-0.26327518,0.30740887,-0.046118967
813,1663243314533,-0.2547233,0.29763532,-0.037567105
814,1663243314538,-0.24128467,0.282975,-0.031458635
815,1663243314538,-0.22662434,0.27075803,-0.026571855
816,1663243314543,-0.21685077,0.2560977,-0.022906773
817,1663243314544,-0.20829892,0.23899399,-0.022906773
818,1663243314548,-0.19363858,0.2121167,-0.022906773
819,1663243314548,-0.18508671,0.18890451,-0.02779355
820,1663243314553,-0.17164809,0.16080554,-0.030236939
821,1663243314554,-0.16309622,0.13637166,-0.0387888
822,1663243314558,-0.15210097,0.10949437,-0.048562355
823,1663243314558,-0.14110571,0.08261709,-0.053449135
824,1663243314564,-0.13377555,0.05451812,-0.06688777
825,1663243314564,-0.12644538,0.02519745,-0.0827698
826,1663243314571,-0.11667182,-0.0053449133,-0.092543356
827,1663243314571,-0.108119965,-0.033443887,-0.10964708
828,1663243314573,-0.1007898,-0.062764555,-0.1279725
829,1663243314574,-0.092237934,-0.08597675,-0.13896775
830,1663243315087,-0.20463383,0.15225367,-0.13285927
831,1663243315087,-0.18264332,0.14614521,-0.13163759
832,1663243315087,-0.1655396,0.14614521,-0.1279725
833,1663243315087,-0.14721419,0.14492351,-0.12308572
834,1663243315087,-0.13011047,0.14981028,-0.11942064
835,1663243315087,-0.11300674,0.15103199,-0.11209047
836,1663243315092,-0.09834641,0.15958385,-0.105982
837,1663243315092,-0.08490777,0.16691402,-0.09376506
838,1663243315097,-0.07513421,0.17668757,-0.08521319
839,1663243315097,-0.06536066,0.18523943,-0.07666133
840,1663243315102,-0.06291727,0.19623469,-0.064444385
841,1663243315102,-0.064138964,0.20967332,-0.053449135
842,1663243315107,-0.06902574,0.20845163,-0.040010497
843,1663243315107,-0.080020994,0.2133384,-0.029015245
844,1663243315112,-0.08124269,0.22066857,-0.021685077
845,1663243315112,-0.09590302,0.22189027,-0.015576605
846,1663243315117,-0.10567658,0.23288552,-0.010689827
847,1663243315117,-0.1227803,0.2377723,-0.0045813546
848,1663243315122,-0.13133216,0.23899399,-0.0021379655
849,1663243315122,-0.1435491,0.24998924,0.0027488125
850,1663243315127,-0.15698774,0.24632415,0.0051922016
851,1663243315127,-0.167983,0.2560977,0.0076355906
852,1663243315131,-0.17897825,0.24754585,0.008857286
853,1663243315131,-0.18753012,0.2365506,0.01007898
854,1663243315137,-0.19363858,0.23410721,0.013744064
855,1663243315137,-0.20219044,0.21944688,0.016187452
856,1663243315141,-0.20219044,0.20845163,0.016187452
857,1663243315141,-0.20096874,0.19745637,0.022295926
858,1663243315147,-0.19852535,0.19012621,0.019852536
859,1663243315147,-0.19852535,0.18890451,0.022295926
860,1663243315151,-0.1887518,0.18523943,0.024739314
861,1663243315151,-0.18508671,0.18768282,0.024739314
862,1663243315157,-0.18142164,0.1913479,0.02351762
863,1663243315157,-0.17286977,0.19501299,0.025961008
864,1663243315161,-0.167983,0.19867808,0.02351762
865,1663243315161,-0.1655396,0.20600824,0.024739314
866,1663243315166,-0.167983,0.2121167,0.02107423
867,1663243315167,-0.1692047,0.21822518,0.019852536
868,1663243315171,-0.17164809,0.22555535,0.019852536
869,1663243315171,-0.17531316,0.23410721,0.016187452
870,1663243315177,-0.18019994,0.24265908,0.017409148
871,1663243315177,-0.17897825,0.24510247,0.02107423
872,1663243315181,-0.18142164,0.25121093,0.019852536
873,1663243315181,-0.18264332,0.2597628,0.02107423
874,1663243315186,-0.18264332,0.26587126,0.019852536
875,1663243315186,-0.18264332,0.27320144,0.02107423
876,1663243315191,-0.17409147,0.28786176,0.02351762
877,1663243315191,-0.167983,0.29885703,0.024739314
878,1663243315196,-0.1643179,0.31107396,0.027182704
879,1663243315196,-0.15454435,0.3245126,0.033291176
880,1663243315201,-0.14843589,0.33306447,0.036956258
881,1663243315201,-0.14110571,0.34283802,0.040621344
882,1663243315206,-0.13011047,0.35261157,0.04795151
883,1663243315206,-0.12522368,0.36238512,0.051616594
884,1663243315211,-0.11667182,0.3733804,0.05650337
885,1663243315211,-0.11056335,0.38437563,0.060168456
886,1663243315216,-0.108119965,0.39903596,0.06383354
887,1663243315216,-0.10323319,0.414918,0.06994201
888,1663243315220,-0.10323319,0.43080002,0.0723854
889,1663243315220,-0.10323319,0.44668207,0.07482879
890,1663243315226,-0.108119965,0.46378577,0.07605048
891,1663243315226,-0.114228435,0.47600272,0.07727218
892,1663243315231,-0.124001995,0.49066305,0.0723854
893,1663243315231,-0.13621894,0.49554983,0.06872032
894,1663243315235,-0.15210097,0.5041017,0.06261184
895,1663243315236,-0.16187452,0.50288,0.057725064
896,1663243315240,-0.17653486,0.5053234,0.051616594
897,1663243315240,-0.19119519,0.5041017,0.04550812
898,1663243315246,-0.20219044,0.49799323,0.036956258
899,1663243315246,-0.211964,0.48944137,0.029626092
900,1663243315250,-0.21929416,0.4796678,0.02351762
901,1663243315250,-0.22540264,0.47111595,0.016187452
902,1663243315255,-0.22662434,0.4576773,0.013744064
903,1663243315255,-0.22662434,0.43202174,0.008857286
904,1663243315260,-0.22173755,0.40147936,0.0051922016
905,1663243315260,-0.2131857,0.3672719,0.0015271181
906,1663243315265,-0.20096874,0.3477248,0.00030542363
907,1663243315265,-0.18753012,0.33795124,-0.0021379655
908,1663243315270,-0.17531316,0.3306211,-0.0045813546
909,1663243315270,-0.16309622,0.32206923,-0.0021379655
910,1663243315275,-0.15698774,0.31107396,-0.0021379655
911,1663243315275,-0.1435491,0.29397026,-0.0009162709
912,1663243315280,-0.13866232,0.27686653,0.0027488125
913,1663243315280,-0.13255386,0.2622062,0.006413896
914,1663243315285,-0.13133216,0.24388076,0.0051922016
915,1663243315285,-0.13133216,0.22677705,0.0027488125
916,1663243315290,-0.12522368,0.20845163,0.00030542363
917,1663243315290,-0.12766708,0.20234315,-0.0070247436
918,1663243315295,-0.12644538,0.20112146,-0.009468133
919,1663243315295,-0.12888877,0.19989976,-0.018019995
920,1663243315300,-0.12888877,0.19867808,-0.026571855
921,1663243315300,-0.13011047,0.19989976,-0.031458635
922,1663243315305,-0.13255386,0.20356485,-0.042453885
923,1663243315305,-0.13621894,0.20356485,-0.051005747
924,1663243315309,-0.14110571,0.20478654,-0.053449135
925,1663243315310,-0.14599249,0.20234315,-0.06566608
926,1663243315314,-0.15087928,0.20356485,-0.072996244
927,1663243315314,-0.15332267,0.20112146,-0.07788303
928,1663243315319,-0.15698774,0.20478654,-0.088878274
929,1663243315320,-0.1643179,0.21089502,-0.092543356
930,1663243315324,-0.16676131,0.2145601,-0.098651834
931,1663243315324,-0.16676131,0.21089502,-0.10720369
932,1663243315329,-0.16676131,0.21089502,-0.108425386
933,1663243315329,-0.1655396,0.20356485,-0.11575556
934,1663243315334,-0.16676131,0.19501299,-0.120642334
935,1663243315334,-0.16309622,0.18646112,-0.12430742
936,1663243315339,-0.15820944,0.17546588,-0.13041589
937,1663243315340,-0.15210097,0.1693574,-0.1291942
938,1663243315344,-0.14599249,0.16324893,-0.13285927
939,1663243315344,-0.13621894,0.15591876,-0.1291942
940,1663243315349,-0.12644538,0.14981028,-0.120642334
941,1663243315349,-0.11667182,0.1473669,-0.118198946
942,1663243315354,-0.10689827,0.14492351,-0.108425386
943,1663243315354,-0.09712471,0.14248012,-0.098651834
944,1663243315359,-0.08490777,0.13759334,-0.086434886
945,1663243315359,-0.073912516,0.13392825,-0.07543964
946,1663243315364,-0.064138964,0.12904148,-0.064444385
947,1663243315364,-0.059252184,0.13026318,-0.051005747
948,1663243315369,-0.051922016,0.13026318,-0.03634541
949,1663243315369,-0.045813546,0.13392825,-0.02535016
950,1663243315374,-0.04459185,0.13270657,-0.014354911
951,1663243315374,-0.045813546,0.13392825,-0.0045813546
952,1663243315379,-0.048256934,0.13759334,0.0027488125
953,1663243315379,-0.054365408,0.14614521,0.006413896
954,1663243315383,-0.061695572,0.15225367,0.0076355906
955,1663243315383,-0.07146913,0.16202724,0.003970507
956,1663243315389,-0.08246438,0.1681357,-0.0009162709
957,1663243315389,-0.099568106,0.18157434,-0.014354911
958,1663243315394,-0.11667182,0.1937913,-0.026571855
959,1663243315394,-0.13255386,0.20478654,-0.04123219
960,1663243315399,-0.15210097,0.20967332,-0.05955761
961,1663243315399,-0.1692047,0.21089502,-0.080326416
962,1663243315405,-0.1899735,0.21089502,-0.102316916
963,1663243315405,-0.20341213,0.20845163,-0.12308572
964,1663243315410,-0.21685077,0.20722993,-0.14385453
965,1663243315410,-0.22906773,0.20234315,-0.16095825
966,1663243315414,-0.23517619,0.20234315,-0.17806198
967,1663243315414,-0.23761958,0.20967332,-0.18783553
968,1663243315418,-0.23639789,0.21089502,-0.19760908
969,1663243315419,-0.24494976,0.22066857,-0.20493926
970,1663243315424,-0.24372806,0.23166382,-0.20738265
971,1663243315424,-0.24494976,0.24265908,-0.20493926
972,1663243315429,-0.24128467,0.24754585,-0.19760908
973,1663243315430,-0.24250636,0.24388076,-0.1927223
974,1663243315434,-0.24250636,0.24510247,-0.18294875
975,1663243315434,-0.24250636,0.24265908,-0.16828842
976,1663243315439,-0.24250636,0.2377723,-0.15851486
977,1663243315439,-0.24128467,0.23288552,-0.14629792
978,1663243315443,-0.24128467,0.23288552,-0.13163759
979,1663243315444,-0.24128467,0.23410721,-0.118198946
980,1663243315448,-0.24372806,0.2365506,-0.105982
981,1663243315449,-0.24617144,0.23044212,-0.09376506
982,1663243315453,-0.24739315,0.22555535,-0.086434886
983,1663243315454,-0.25105822,0.21944688,-0.080326416
984,1663243315458,-0.2522799,0.20967332,-0.07543964
985,1663243315459,-0.25105822,0.19623469,-0.07543964
986,1663243315463,-0.2522799,0.19012621,-0.07666133
987,1663243315463,-0.24861483,0.18157434,-0.07910472
988,1663243315468,-0.24617144,0.17302248,-0.0827698
989,1663243315469,-0.23761958,0.16447063,-0.0839915
990,1663243315473,-0.22906773,0.16080554,-0.088878274
991,1663243315474,-0.21685077,0.15958385,-0.088878274
992,1663243315478,-0.20463383,0.16324893,-0.08765658
993,1663243315478,-0.19119519,0.16324893,-0.09132166
994,1663243315482,-0.17531316,0.16202724,-0.088878274
995,1663243315483,-0.16187452,0.16569231,-0.086434886
996,1663243315487,-0.14843589,0.16691402,-0.086434886
997,1663243315488,-0.13255386,0.1681357,-0.07910472
998,1663243315492,-0.12033691,0.17180079,-0.07666133
999,1663243315492,-0.10934166,0.17668757,-0.06933116
1000,1663243315497,-0.102011494,0.18279605,-0.05955761
1001,1663243315497,-0.09345963,0.17913096,-0.049784053
1002,1663243315502,-0.08857285,0.18279605,-0.037567105
1003,1663243315502,-0.086129464,0.18401773,-0.029015245
1004,1663243315507,-0.083686076,0.18157434,-0.021685077
1005,1663243315507,-0.08490777,0.17546588,-0.013133216
1006,1663243315512,-0.08857285,0.17424418,-0.008246438
1007,1663243315512,-0.08979455,0.18279605,-0.0009162709
1008,1663243315517,-0.09468132,0.19623469,0.0027488125
1009,1663243315517,-0.09834641,0.20845163,0.006413896
1010,1663243315522,-0.10445488,0.21822518,0.0076355906
1011,1663243315522,-0.11056335,0.22555535,0.0076355906
1012,1663243315526,-0.11300674,0.2377723,0.0076355906
1013,1663243315527,-0.12033691,0.25121093,0.0051922016
1014,1663243315532,-0.1227803,0.25243264,0.003970507
1015,1663243315532,-0.12644538,0.25365433,-0.0021379655
1016,1663243315534,-0.13133216,0.25121093,-0.010689827
1017,1663243315539,-0.13133216,0.25365433,-0.015576605
1018,1663243315539,-0.13255386,0.24876754,-0.021685077
1019,1663243315545,-0.13133216,0.24510247,-0.029015245
1020,1663243315545,-0.13255386,0.23532891,-0.03634541
1021,1663243315550,-0.12522368,0.22189027,-0.042453885
1022,1663243315550,-0.12033691,0.2145601,-0.044897273
1023,1663243315555,-0.114228435,0.20967332,-0.04734066
1024,1663243315555,-0.108119965,0.20112146,-0.046118967
1025,1663243315560,-0.102011494,0.19501299,-0.046118967
1026,1663243315560,-0.09590302,0.1925696,-0.044897273
1027,1663243315564,-0.09101624,0.19623469,-0.040010497
1028,1663243315565,-0.08735116,0.19989976,-0.037567105
1029,1663243315571,-0.080020994,0.19867808,-0.029015245
1030,1663243315571,-0.07513421,0.18890451,-0.021685077
1031,1663243315575,-0.067804046,0.17668757,-0.014354911
1032,1663243315576,-0.059252184,0.16569231,-0.005803049
1033,1663243315608,-0.05070032,0.15836215,0.0027488125
1034,1663243315608,-0.040926766,0.1485886,0.01007898
1035,1663243315609,-0.033596598,0.13637166,0.016187452
1036,1663243315609,-0.025044737,0.12904148,0.019852536
1037,1663243315609,-0.02015796,0.12048962,0.024739314
1038,1663243315609,-0.010384403,0.10827268,0.028404398
1039,1663243315609,-0.005497625,0.09972081,0.028404398
1040,1663243315609,-0.0030542363,0.08994726,0.025961008
1041,1663243315609,0.0030542363,0.0801737,0.024739314
1042,1663243315609,0.0018325418,0.07650862,0.016187452
1043,1663243315609,0.00061084726,0.069178455,0.008857286
1044,1663243315609,0.00061084726,0.0581832,-0.0021379655
1045,1663243315609,-0.004275931,0.05207473,-0.015576605
1046,1663243315609,-0.010384403,0.044744562,-0.029015245
1047,1663243315613,-0.017714571,0.039857782,-0.044897273
1048,1663243315614,-0.027488127,0.041079476,-0.057114217
1049,1663243315619,-0.037261683,0.03863609,-0.074217945
1050,1663243315619,-0.048256934,0.037414394,-0.09009997
1051,1663243315623,-0.060473878,0.037414394,-0.102316916
1052,1663243315623,-0.07513421,0.0361927,-0.11697725
1053,1663243315628,-0.08246438,0.03130592,-0.12675081
1054,1663243315628,-0.09468132,0.033749312,-0.13163759
1055,1663243315633,-0.10445488,0.03863609,-0.13896775
1056,1663243315633,-0.11545013,0.04352287,-0.13896775
1057,1663243315639,-0.12522368,0.044744562,-0.13652436
1058,1663243315642,-0.12888877,0.048409645,-0.13530266
1059,1663243315643,-0.13377555,0.04963134,-0.1291942
1060,1663243315644,-0.13621894,0.045966256,-0.12308572
1061,1663243315648,-0.14232741,0.050853033,-0.11331217
1062,1663243315648,-0.13988402,0.05207473,-0.102316916
1063,1663243315654,-0.1435491,0.04352287,-0.09376506
1064,1663243315654,-0.1447708,0.042301174,-0.0839915
1065,1663243315658,-0.13744064,0.0361927,-0.07177455
1066,1663243315658,-0.13866232,0.032527618,-0.064444385
1067,1663243315663,-0.13499725,0.026419144,-0.057114217
1068,1663243315663,-0.13011047,0.021532366,-0.04734066
1069,1663243315668,-0.13377555,0.019088976,-0.044897273
1070,1663243315668,-0.13011047,0.009315421,-0.04123219
1071,1663243315673,-0.13133216,0.006872032,-0.03634541
1072,1663243315673,-0.12766708,-0.00167983,-0.035123717
1073,1663243315678,-0.12888877,-0.0053449133,-0.03634541
1074,1663243315678,-0.13011047,-0.010231691,-0.0387888
1075,1663243315684,-0.12888877,-0.013896775,-0.042453885
1076,1663243315684,-0.13377555,-0.013896775,-0.04367558
1077,1663243315689,-0.13377555,-0.013896775,-0.051005747
1078,1663243315689,-0.13866232,-0.017561859,-0.05833591
1079,1663243315694,-0.13621894,-0.017561859,-0.062000997
1080,1663243315694,-0.13499725,-0.028557109,-0.06688777
1081,1663243315699,-0.13499725,-0.032222193,-0.070552856
1082,1663243315699,-0.13133216,-0.033443887,-0.07543964
1083,1663243315703,-0.12888877,-0.033443887,-0.07788303
1084,1663243315704,-0.124001995,-0.027335415,-0.07543964
1085,1663243315708,-0.12033691,-0.021226943,-0.07543964
1086,1663243315708,-0.11667182,-0.0151184695,-0.06933116
1087,1663243315713,-0.11178505,-0.0029015245,-0.064444385
1088,1663243315713,-0.108119965,0.009315421,-0.060779303
1089,1663243315718,-0.10323319,0.023975754,-0.049784053
1090,1663243315718,-0.09590302,0.034971006,-0.046118967
1091,1663243315723,-0.09590302,0.04718795,-0.042453885
1092,1663243315723,-0.09101624,0.06062659,-0.035123717
1093,1663243315728,-0.08857285,0.065513365,-0.030236939
1094,1663243315728,-0.08246438,0.07040015,-0.02535016
1095,1663243315733,-0.080020994,0.075286925,-0.020463383
1096,1663243315733,-0.0787993,0.07406523,-0.019241689
1097,1663243315738,-0.073912516,0.075286925,-0.010689827
1098,1663243315739,-0.07146913,0.07406523,-0.008246438
1099,1663243315742,-0.070247434,0.07162184,-0.008246438
1100,1663243315743,-0.06658235,0.065513365,-0.00335966
1101,1663243315748,-0.067804046,0.056961507,-0.0070247436
1102,1663243315748,-0.06658235,0.048409645,-0.00335966
1103,1663243315752,-0.06291727,0.039857782,-0.0045813546
1104,1663243315753,-0.064138964,0.0361927,-0.0070247436
1105,1663243315757,-0.06658235,0.028862532,-0.0070247436
1106,1663243315758,-0.064138964,0.021532366,-0.0045813546
1107,1663243315762,-0.061695572,0.015423893,-0.00335966
1108,1663243315762,-0.061695572,0.01175881,-0.0021379655
1109,1663243315768,-0.061695572,0.009315421,0.0015271181
1110,1663243315768,-0.056808796,0.0007635591,0.0051922016
1111,1663243315772,-0.05314371,-0.0029015245,0.0076355906
1112,1663243315772,-0.049478628,-0.0029015245,0.011300675
1113,1663243315777,-0.04459185,-0.004123219,0.017409148
1114,1663243315778,-0.038483378,-0.006566608,0.024739314
1115,1663243315782,-0.03115321,-0.004123219,0.030847786
1116,1663243315783,-0.02015796,-0.004123219,0.036956258
1117,1663243315796,-0.011606098,0.004428643,0.044286426
1118,1663243315796,-0.00671932,0.012980504,0.046729814
1119,1663243315796,0.0018325418,0.02275406,0.051616594
1120,1663243315796,0.007941014,0.033749312,0.054059982
1121,1663243315797,0.014049487,0.037414394,0.055281676
1122,1663243315797,0.018936265,0.027640838,0.05650337
1123,1663243315802,0.023823043,0.028862532,0.05650337
1124,1663243315802,0.025044737,0.04352287,0.054059982
1125,1663243315807,0.026266431,0.065513365,0.05283829
1126,1663243315807,0.023823043,0.08506048,0.04795151
1127,1663243315811,0.02260135,0.09849912,0.04550812
1128,1663243315812,0.016492875,0.10094251,0.038177952
1129,1663243315817,0.016492875,0.09361234,0.035734564
1130,1663243315817,0.011606098,0.08383878,0.029626092
1131,1663243315822,0.005497625,0.075286925,0.02351762
1132,1663243315822,0.00061084726,0.061848287,0.014965758
1133,1663243315826,-0.0030542363,0.042301174,0.0076355906
1134,1663243315827,-0.00671932,0.026419144,-0.0009162709
1135,1663243315832,-0.007941014,0.006872032,-0.0045813546
1136,1663243315832,-0.014049487,-0.004123219,-0.010689827
1137,1663243315839,-0.012827792,-0.017561859,-0.015576605
1138,1663243315839,-0.012827792,-0.029778805,-0.016798299
1139,1663243315841,-0.011606098,-0.037108973,-0.016798299
1140,1663243315841,-0.012827792,-0.037108973,-0.020463383
1141,1663243315846,-0.012827792,-0.038330667,-0.018019995
1142,1663243315846,-0.011606098,-0.038330667,-0.015576605
1143,1663243315851,-0.012827792,-0.03955236,-0.014354911
1144,1663243315851,-0.014049487,-0.035887275,-0.009468133
1145,1663243315856,-0.016492875,-0.033443887,-0.0070247436
1146,1663243315857,-0.017714571,-0.03466558,-0.0045813546
1147,1663243315862,-0.02015796,-0.03466558,0.00030542363
1148,1663243315862,-0.02260135,-0.033443887,0.0027488125
1149,1663243315866,-0.025044737,-0.033443887,0.006413896
1150,1663243315866,-0.027488127,-0.032222193,0.006413896
1151,1663243315871,-0.026266431,-0.033443887,0.0076355906
1152,1663243315871,-0.028709821,-0.03466558,0.011300675
1153,1663243315876,-0.033596598,-0.031000499,0.01007898
1154,1663243315877,-0.029931515,-0.037108973,0.013744064
1155,1663243315881,-0.03115321,-0.040774055,0.016187452
1156,1663243315881,-0.032374904,-0.043217443,0.016187452
1157,1663243315886,-0.03603999,-0.048104223,0.014965758
1158,1663243315886,-0.037261683,-0.048104223,0.013744064
1159,1663243315891,-0.037261683,-0.048104223,0.011300675
1160,1663243315891,-0.040926766,-0.04566083,0.01007898
1161,1663243315896,-0.038483378,-0.03955236,0.0076355906
1162,1663243315896,-0.043370154,-0.029778805,0.00030542363
1163,1663243315901,-0.04459185,-0.020005248,-0.0009162709
1164,1663243315901,-0.038483378,-0.010231691,-0.0021379655
1165,1663243315906,-0.03970507,-0.00167983,-0.0045813546
1166,1663243315906,-0.043370154,0.008093726,-0.008246438
1167,1663243315911,-0.038483378,0.015423893,-0.0045813546
1168,1663243315911,-0.034818295,0.02275406,0.00030542363
1169,1663243315916,-0.033596598,0.030084228,0.0015271181
1170,1663243315916,-0.028709821,0.037414394,0.0051922016
1171,1663243315921,-0.02260135,0.045966256,0.014965758
1172,1663243315921,-0.018936265,0.053296424,0.018630842
1173,1663243315925,-0.014049487,0.061848287,0.024739314
1174,1663243315925,-0.014049487,0.07284354,0.028404398
1175,1663243315930,-0.007941014,0.07773031,0.03451287
1176,1663243315931,-0.005497625,0.08261709,0.03939965
1177,1663243315936,-0.004275931,0.081395395,0.040621344
1178,1663243315937,-0.004275931,0.07773031,0.041843038
1179,1663243315941,-0.0030542363,0.07284354,0.041843038
1180,1663243315941,-0.0018325418,0.061848287,0.043064732
1181,1663243315945,-0.0030542363,0.053296424,0.03939965
1182,1663243315946,-0.005497625,0.045966256,0.03451287
1183,1663243315951,-0.005497625,0.033749312,0.028404398
1184,1663243315951,-0.005497625,0.027640838,0.022295926
1185,1663243315955,-0.007941014,0.020310672,0.016187452
1186,1663243315955,-0.007941014,0.014202199,0.008857286
1187,1663243315961,-0.00671932,0.004428643,0.0051922016
1188,1663243315961,-0.007941014,-0.0029015245,-0.0009162709
1189,1663243315965,-0.00671932,-0.009009997,-0.009468133
1190,1663243315965,-0.00671932,-0.0151184695,-0.011911522
1191,1663243315970,-0.00061084726,-0.027335415,-0.016798299
1192,1663243315971,0.0018325418,-0.033443887,-0.018019995
1193,1663243315975,0.005497625,-0.033443887,-0.018019995
1194,1663243315975,0.012827792,-0.04566083,-0.020463383
1195,1663243315981,0.02015796,-0.055434387,-0.019241689
1196,1663243315981,0.023823043,-0.056656085,-0.018019995
1197,1663243315984,0.027488127,-0.03955236,-0.018019995
1198,1663243315985,0.03115321,-0.016340164,-0.015576605
1199,1663243315991,0.033596598,0.0007635591,-0.013133216
1200,1663243315991,0.034818295,0.01175881,-0.013133216
1201,1663243315995,0.034818295,0.019088976,-0.009468133
1202,1663243315995,0.034818295,0.026419144,-0.009468133
1203,1663243316001,0.033596598,0.027640838,-0.005803049
1204,1663243316001,0.032374904,0.02519745,-0.005803049
1205,1663243316004,0.026266431,0.028862532,-0.0021379655
1206,1663243316004,0.025044737,0.020310672,0.00030542363
1207,1663243316010,0.02260135,0.020310672,0.0015271181
1208,1663243316011,0.016492875,0.017867282,0.0027488125
1209,1663243316014,0.015271181,0.0056503373,0.0076355906
1210,1663243316015,0.010384403,0.0007635591,0.006413896
1211,1663243316019,0.0030542363,0.0007635591,0.006413896
1212,1663243316019,-0.005497625,0.009315421,0.006413896
1213,1663243316024,-0.012827792,0.012980504,0.0051922016
1214,1663243316024,-0.023823043,0.014202199,0.0015271181
1215,1663243316029,-0.029931515,0.003206948,-0.0021379655
1216,1663243316029,-0.032374904,-0.020005248,-0.0070247436
1217,1663243316034,-0.034818295,-0.049325917,-0.015576605
1218,1663243316034,-0.034818295,-0.07131642,-0.020463383
1219,1663243316039,-0.038483378,-0.08231167,-0.02779355
1220,1663243316039,-0.04214846,-0.084755056,-0.03634541
1221,1663243316045,-0.043370154,-0.07742489,-0.04123219
1222,1663243316045,-0.048256934,-0.06398625,-0.049784053
1223,1663243316050,-0.054365408,-0.040774055,-0.053449135
1224,1663243316050,-0.06291727,-0.018783553,-0.055892523
1225,1663243316055,-0.06902574,-0.004123219,-0.05955761
1226,1663243316055,-0.0775776,-0.0053449133,-0.06322269
1227,1663243316060,-0.08735116,-0.010231691,-0.06566608
1228,1663243316060,-0.092237934,-0.0151184695,-0.06810947
1229,1663243316064,-0.092237934,-0.024892027,-0.06688777
1230,1663243316064,-0.09468132,-0.029778805,-0.06566608
1231,1663243316070,-0.092237934,-0.037108973,-0.06688777
1232,1663243316070,-0.08857285,-0.038330667,-0.064444385
1233,1663243316075,-0.08857285,-0.006566608,-0.06322269
1234,1663243316098,-0.08857285,0.01175881,-0.05833591
1235,1663243316098,-0.09101624,0.026419144,-0.060779303
1236,1663243316098,-0.09468132,0.041079476,-0.05833591
1237,1663243316098,-0.09834641,0.045966256,-0.05467083
1238,1663243316098,-0.10445488,0.05451812,-0.057114217
1239,1663243316098,-0.11056335,0.05451812,-0.057114217
1240,1663243316098,-0.11300674,0.053296424,-0.05955761
1241,1663243316098,-0.117893524,0.04963134,-0.060779303
1242,1663243316098,-0.12155861,0.04352287,-0.060779303
1243,1663243316099,-0.1227803,0.0361927,-0.06322269
1244,1663243316103,-0.12033691,0.027640838,-0.06810947
1245,1663243316103,-0.11667182,0.021532366,-0.070552856
1246,1663243316109,-0.11300674,0.019088976,-0.07543964
1247,1663243316109,-0.10689827,0.014202199,-0.080326416
1248,1663243316113,-0.1007898,0.010537115,-0.0839915
1249,1663243316113,-0.09101624,0.0019852535,-0.086434886
1250,1663243316118,-0.0787993,-0.00045813544,-0.08765658
1251,1663243316118,-0.07146913,-0.0053449133,-0.08765658
1252,1663243316123,-0.061695572,-0.01267508,-0.08765658
1253,1663243316123,-0.04703524,-0.020005248,-0.0827698
1254,1663243316127,-0.037261683,-0.018783553,-0.07788303
1255,1663243316127,-0.027488127,-0.022448637,-0.07177455
1256,1663243316132,-0.009162709,-0.02611372,-0.060779303
1257,1663243316133,-0.0030542363,-0.029778805,-0.053449135
1258,1663243316137,0.004275931,-0.03466558,-0.04123219
1259,1663243316137,0.010384403,-0.027335415,-0.030236939
1260,1663243316143,0.02015796,-0.033443887,-0.020463383
1261,1663243316143,0.021379653,-0.024892027,-0.009468133
1262,1663243316148,0.027488127,-0.018783553,0.00030542363
1263,1663243316148,0.028709821,-0.021226943,0.01007898
1264,1663243316153,0.028709821,-0.016340164,0.02107423
1265,1663243316153,0.026266431,-0.018783553,0.025961008
1266,1663243316157,0.029931515,-0.022448637,0.03451287
1267,1663243316157,0.023823043,-0.020005248,0.03939965
1268,1663243316163,0.025044737,-0.021226943,0.044286426
1269,1663243316163,0.016492875,-0.017561859,0.04795151
1270,1663243316168,0.011606098,-0.016340164,0.049173206
1271,1663243316168,0.004275931,-0.013896775,0.04795151
1272,1663243316172,0.00061084726,-0.011453386,0.0503949
1273,1663243316173,-0.010384403,-0.009009997,0.04795151
1274,1663243316177,-0.02015796,-0.0053449133,0.044286426
1275,1663243316178,-0.023823043,-0.006566608,0.044286426
1276,1663243316182,-0.033596598,-0.0053449133,0.035734564
1277,1663243316182,-0.04214846,-0.004123219,0.033291176
1278,1663243316188,-0.04703524,-0.0077883024,0.028404398
1279,1663243316188,-0.05070032,-0.006566608,0.024739314
1280,1663243316192,-0.056808796,-0.0029015245,0.022295926
1281,1663243316192,-0.054365408,-0.004123219,0.019852536
1282,1663243316197,-0.054365408,-0.004123219,0.019852536
1283,1663243316197,-0.054365408,-0.00045813544,0.019852536
1284,1663243316202,-0.048256934,-0.00045813544,0.018630842
1285,1663243316203,-0.045813546,0.003206948,0.019852536
1286,1663243316207,-0.038483378,0.003206948,0.02351762
1287,1663243316207,-0.032374904,0.01175881,0.024739314
1288,1663243316213,-0.027488127,0.019088976,0.025961008
1289,1663243316213,-0.02015796,0.02275406,0.027182704
1290,1663243316217,-0.014049487,0.028862532,0.029626092
1291,1663243316217,-0.007941014,0.033749312,0.033291176
1292,1663243316222,-0.0018325418,0.032527618,0.033291176
1293,1663243316223,0.0030542363,0.034971006,0.03451287
1294,1663243316228,0.004275931,0.034971006,0.032069482
1295,1663243316228,0.007941014,0.03130592,0.030847786
1296,1663243316232,0.007941014,0.03130592,0.029626092
1297,1663243316232,0.009162709,0.028862532,0.027182704
1298,1663243316237,0.009162709,0.026419144,0.025961008
1299,1663243316237,0.009162709,0.021532366,0.024739314
1300,1663243316242,0.005497625,0.016645588,0.018630842
1301,1663243316242,0.005497625,0.01175881,0.016187452
1302,1663243316247,-0.00061084726,0.006872032,0.01007898
1303,1663243316247,-0.004275931,0.003206948,0.0076355906
1304,1663243316252,-0.004275931,-0.00045813544,0.003970507
1305,1663243316252,-0.00671932,-0.004123219,0.0015271181
1306,1663243316256,-0.012827792,-0.0029015245,0.00030542363
1307,1663243316257,-0.015271181,-0.006566608,0.00030542363
1308,1663243316266,-0.017714571,-0.00045813544,-0.00335966
1309,1663243316266,-0.02260135,0.0007635591,-0.0045813546
1310,1663243316266,-0.026266431,0.0056503373,-0.00335966
1311,1663243316267,-0.028709821,0.004428643,-0.0021379655
1312,1663243316271,-0.03603999,0.010537115,-0.0009162709
1313,1663243316271,-0.03970507,0.012980504,-0.0009162709
1314,1663243316276,-0.04703524,0.015423893,0.0015271181
1315,1663243316276,-0.0555871,0.016645588,-0.0009162709
1316,1663243316281,-0.064138964,0.014202199,-0.00335966
1317,1663243316281,-0.07146913,0.014202199,-0.00335966
1318,1663243316286,-0.0775776,0.006872032,-0.009468133
1319,1663243316286,-0.080020994,0.0056503373,-0.009468133
1320,1663243316291,-0.083686076,0.004428643,-0.013133216
1321,1663243316291,-0.08490777,0.004428643,-0.018019995
1322,1663243316296,-0.083686076,0.004428643,-0.016798299
1323,1663243316296,-0.083686076,0.004428643,-0.019241689
1324,1663243316300,-0.08246438,0.008093726,-0.022906773
1325,1663243316301,-0.08124269,0.012980504,-0.022906773
1326,1663243316305,-0.0787993,0.015423893,-0.024128467
1327,1663243316306,-0.0787993,0.014202199,-0.026571855
1328,1663243316310,-0.073912516,0.014202199,-0.02535016
1329,1663243316310,-0.070247434,0.006872032,-0.02779355
1330,1663243316316,-0.07269082,0.0056503373,-0.029015245
1331,1663243316316,-0.06536066,0.0007635591,-0.02535016
1332,1663243316320,-0.061695572,-0.00045813544,-0.026571855
1333,1663243316321,-0.05803049,0.0019852535,-0.022906773
1334,1663243316325,-0.05070032,0.003206948,-0.020463383
1335,1663243316325,-0.048256934,0.009315421,-0.018019995
1336,1663243316330,-0.04459185,0.016645588,-0.015576605
1337,1663243316330,-0.038483378,0.021532366,-0.008246438
1338,1663243316335,-0.03603999,0.02275406,-0.0070247436
1339,1663243316335,-0.034818295,0.021532366,-0.0021379655
1340,1663243316340,-0.032374904,0.023975754,0.003970507
1341,1663243316340,-0.033596598,0.02275406,0.0076355906
1342,1663243316346,-0.03603999,0.021532366,0.011300675
1343,1663243316346,-0.033596598,0.015423893,0.017409148
1344,1663243316350,-0.03603999,0.014202199,0.018630842
1345,1663243316350,-0.04214846,0.014202199,0.017409148
1346,1663243316355,-0.04214846,0.014202199,0.02107423
1347,1663243316355,-0.045813546,0.019088976,0.018630842
1348,1663243316361,-0.051922016,0.019088976,0.018630842
1349,1663243316361,-0.051922016,0.020310672,0.018630842
1350,1663243316365,-0.059252184,0.020310672,0.014965758
1351,1663243316365,-0.064138964,0.021532366,0.012522369
1352,1663243316370,-0.067804046,0.023975754,0.008857286
1353,1663243316370,-0.07146913,0.02519745,0.006413896
1354,1663243316375,-0.0775776,0.023975754,-0.0009162709
1355,1663243316375,-0.08124269,0.023975754,-0.00335966
1356,1663243316380,-0.086129464,0.021532366,-0.008246438
1357,1663243316380,-0.08735116,0.016645588,-0.011911522
1358,1663243316385,-0.08857285,0.010537115,-0.018019995
1359,1663243316385,-0.08857285,0.006872032,-0.022906773
1360,1663243316390,-0.086129464,0.0019852535,-0.02779355
1361,1663243316390,-0.083686076,-0.00045813544,-0.030236939
1362,1663243316395,-0.0787993,-0.006566608,-0.033902023
1363,1663243316395,-0.073912516,-0.0077883024,-0.037567105
1364,1663243316401,-0.064138964,-0.0077883024,-0.040010497
1365,1663243316401,-0.054365408,-0.006566608,-0.042453885
1366,1663243316405,-0.048256934,-0.0053449133,-0.04367558
1367,1663243316405,-0.043370154,-0.004123219,-0.04367558
1368,1663243316409,-0.037261683,-0.00167983,-0.042453885
1369,1663243316410,-0.033596598,0.003206948,-0.04123219
1370,1663243316414,-0.03115321,0.006872032,-0.040010497
1371,1663243316414,-0.028709821,0.010537115,-0.0387888
1372,1663243316419,-0.027488127,0.012980504,-0.033902023
1373,1663243316419,-0.033596598,0.015423893,-0.033902023
1374,1663243316425,-0.034818295,0.017867282,-0.02779355
1375,1663243316425,-0.038483378,0.016645588,-0.022906773
1376,1663243316429,-0.04459185,0.019088976,-0.021685077
1377,1663243316429,-0.05314371,0.021532366,-0.019241689
1378,1663243316434,-0.054365408,0.017867282,-0.013133216
1379,1663243316434,-0.061695572,0.019088976,-0.010689827
1380,1663243316439,-0.067804046,0.017867282,-0.008246438
1381,1663243316439,-0.076355904,0.019088976,-0.005803049
1382,1663243316445,-0.0787993,0.017867282,-0.0009162709
1383,1663243316445,-0.086129464,0.020310672,0.00030542363
1384,1663243316450,-0.09468132,0.017867282,0.00030542363
1385,1663243316450,-0.102011494,0.020310672,0.0015271181
1386,1663243316454,-0.102011494,0.017867282,0.0015271181
1387,1663243316454,-0.10689827,0.012980504,0.0015271181
1388,1663243316460,-0.10689827,0.01175881,0.0015271181
1389,1663243316460,-0.108119965,0.0056503373,-0.0021379655
1390,1663243316465,-0.10323319,0.0019852535,0.00030542363
1391,1663243316466,-0.099568106,0.004428643,-0.00335966
1392,1663243316470,-0.092237934,0.0007635591,-0.0070247436
1393,1663243316470,-0.08857285,0.004428643,-0.009468133
1394,1663243316474,-0.076355904,0.006872032,-0.008246438
1395,1663243316474,-0.06902574,0.010537115,-0.008246438
1396,1663243316479,-0.061695572,0.015423893,-0.009468133
1397,1663243316479,-0.05070032,0.014202199,-0.009468133
1398,1663243316485,-0.037261683,0.010537115,-0.008246438
1399,1663243316485,-0.029931515,0.006872032,-0.0070247436
1400,1663243316489,-0.023823043,0.0056503373,-0.0070247436
1401,1663243316490,-0.016492875,0.003206948,-0.008246438
1402,1663243316493,-0.010384403,0.003206948,-0.0070247436
1403,1663243316493,-0.00671932,0.008093726,-0.0045813546
1404,1663243316498,-0.0030542363,0.008093726,-0.00335966
1405,1663243316498,0.00061084726,0.012980504,-0.00335966
1406,1663243316503,-0.00061084726,0.014202199,-0.0021379655
1407,1663243316504,0.00061084726,0.015423893,-0.0009162709
1408,1663243316508,-0.004275931,0.019088976,-0.0009162709
1409,1663243316509,-0.007941014,0.020310672,0.00030542363
1410,1663243316513,-0.012827792,0.023975754,0.0015271181
1411,1663243316513,-0.014049487,0.026419144,0.0051922016
1412,1663243316518,-0.018936265,0.033749312,0.0051922016
1413,1663243316518,-0.026266431,0.034971006,0.0051922016
1414,1663243316523,-0.026266431,0.032527618,0.0076355906
1415,1663243316523,-0.03115321,0.034971006,0.0076355906
1416,1663243316528,-0.033596598,0.032527618,0.006413896
1417,1663243316528,-0.034818295,0.030084228,0.0051922016
1418,1663243316534,-0.03603999,0.02275406,0.0051922016
1419,1663243316534,-0.034818295,0.015423893,0.0015271181
1420,1663243316538,-0.032374904,0.006872032,0.00030542363
1421,1663243316538,-0.03115321,0.0007635591,-0.0045813546
1422,1663243316544,-0.029931515,-0.0053449133,-0.005803049
1423,1663243316544,-0.025044737,-0.01267508,-0.008246438
1424,1663243316548,-0.018936265,-0.013896775,-0.010689827
1425,1663243316548,-0.014049487,-0.0151184695,-0.010689827
1426,1663243316553,-0.009162709,-0.018783553,-0.009468133
1427,1663243316553,-0.00671932,-0.022448637,-0.011911522
1428,1663243316558,-0.0018325418,-0.020005248,-0.0070247436
1429,1663243316558,0.00061084726,-0.016340164,-0.0045813546
1430,1663243316563,0.00671932,-0.01267508,0.00030542363
1431,1663243316564,0.007941014,-0.009009997,0.003970507
1432,1663243316570,0.009162709,-0.00167983,0.008857286
1433,1663243316571,0.009162709,0.0019852535,0.013744064
1434,1663243316573,0.007941014,0.01175881,0.014965758
1435,1663243316573,0.007941014,0.015423893,0.018630842
1436,1663243316585,0.004275931,0.020310672,0.02351762
1437,1663243316585,-0.00061084726,0.02519745,0.024739314
1438,1663243316585,-0.0030542363,0.030084228,0.027182704
1439,1663243316585,-0.005497625,0.028862532,0.032069482
1440,1663243316588,-0.011606098,0.032527618,0.028404398
1441,1663243316588,-0.015271181,0.03130592,0.029626092
1442,1663243316593,-0.018936265,0.033749312,0.030847786
1443,1663243316593,-0.021379653,0.032527618,0.025961008
1444,1663243316597,-0.026266431,0.030084228,0.025961008
1445,1663243316597,-0.026266431,0.030084228,0.025961008
1446,1663243316602,-0.029931515,0.03130592,0.02107423
1447,1663243316602,-0.028709821,0.02519745,0.019852536
1448,1663243316607,-0.033596598,0.023975754,0.014965758
1449,1663243316607,-0.028709821,0.015423893,0.01007898
1450,1663243316612,-0.034818295,0.010537115,0.006413896
1451,1663243316612,-0.03115321,0.008093726,0.003970507
1452,1663243316617,-0.03115321,0.003206948,0.0015271181
1453,1663243316617,-0.029931515,0.0007635591,-0.00335966
1454,1663243316622,-0.02260135,-0.0029015245,-0.008246438
1455,1663243316622,-0.023823043,-0.011453386,-0.010689827
1456,1663243316628,-0.018936265,-0.006566608,-0.016798299
1457,1663243316628,-0.016492875,-0.004123219,-0.019241689
1458,1663243316632,-0.011606098,0.0019852535,-0.018019995
1459,1663243316632,-0.007941014,0.0019852535,-0.020463383
1460,1663243316638,-0.005497625,0.008093726,-0.020463383
1461,1663243316638,-0.004275931,0.01175881,-0.020463383
1462,1663243316643,0.0018325418,0.009315421,-0.018019995
1463,1663243316643,0.005497625,0.009315421,-0.015576605
1464,1663243316647,0.007941014,0.010537115,-0.010689827
1465,1663243316647,0.009162709,0.01175881,-0.010689827
1466,1663243316652,0.011606098,0.012980504,-0.008246438
1467,1663243316652,0.018936265,0.016645588,-0.00335966
1468,1663243316657,0.018936265,0.021532366,0.00030542363
1469,1663243316657,0.02260135,0.026419144,0.003970507
1470,1663243316662,0.025044737,0.028862532,0.01007898
1471,1663243316662,0.029931515,0.027640838,0.012522369
1472,1663243316667,0.029931515,0.026419144,0.016187452
1473,1663243316667,0.027488127,0.027640838,0.019852536
1474,1663243316671,0.029931515,0.03130592,0.02107423
1475,1663243316672,0.028709821,0.02519745,0.02351762
1476,1663243316677,0.028709821,0.02275406,0.022295926
1477,1663243316677,0.026266431,0.019088976,0.02351762
1478,1663243316681,0.023823043,0.015423893,0.02351762
1479,1663243316681,0.023823043,0.009315421,0.02351762
1480,1663243316687,0.021379653,-0.00045813544,0.02351762
1481,1663243316687,0.017714571,-0.0053449133,0.022295926
1482,1663243316692,0.015271181,-0.01267508,0.017409148
1483,1663243316692,0.014049487,-0.021226943,0.016187452
1484,1663243316697,0.012827792,-0.027335415,0.013744064
1485,1663243316697,0.009162709,-0.031000499,0.01007898
1486,1663243316701,0.005497625,-0.033443887,0.003970507
1487,1663243316702,0.004275931,-0.035887275,0.0027488125
1488,1663243316706,-0.00061084726,-0.037108973,0.00030542363
1489,1663243316706,-0.0030542363,-0.038330667,-0.00335966
1490,1663243316711,-0.004275931,-0.03955236,-0.005803049
1491,1663243316712,-0.0030542363,-0.040774055,-0.0070247436
1492,1663243316716,-0.004275931,-0.03955236,-0.008246438
1493,1663243316716,-0.00671932,-0.03955236,-0.011911522
1494,1663243316721,-0.00671932,-0.038330667,-0.013133216
1495,1663243316721,-0.007941014,-0.035887275,-0.014354911
1496,1663243316726,-0.005497625,-0.037108973,-0.015576605
1497,1663243316727,-0.0030542363,-0.03466558,-0.018019995
1498,1663243316731,-0.0018325418,-0.029778805,-0.015576605
1499,1663243316731,0.004275931,-0.028557109,-0.014354911
1500,1663243316736,0.005497625,-0.028557109,-0.015576605
1501,1663243316736,0.007941014,-0.02367033,-0.014354911
1502,1663243316741,0.011606098,-0.021226943,-0.013133216
1503,1663243316741,0.016492875,-0.027335415,-0.009468133
1504,1663243316746,0.021379653,-0.029778805,-0.0070247436
1505,1663243316747,0.025044737,-0.028557109,-0.0021379655
1506,1663243316751,0.026266431,-0.027335415,-0.0009162709
1507,1663243316751,0.026266431,-0.020005248,0.0027488125
1508,1663243316756,0.027488127,-0.017561859,0.0076355906
1509,1663243316756,0.025044737,-0.011453386,0.008857286
1510,1663243316760,0.023823043,-0.006566608,0.011300675
1511,1663243316761,0.02015796,0.004428643,0.016187452
1512,1663243316766,0.014049487,0.012980504,0.016187452
1513,1663243316766,0.00671932,0.021532366,0.017409148
1514,1663243316770,0.005497625,0.02519745,0.018630842
1515,1663243316770,0.00061084726,0.032527618,0.019852536
1516,1663243316775,-0.0018325418,0.034971006,0.019852536
1517,1663243316775,-0.00671932,0.042301174,0.018630842
1518,1663243316781,-0.00671932,0.044744562,0.022295926
1519,1663243316781,-0.010384403,0.05207473,0.02107423
1520,1663243316786,-0.010384403,0.0581832,0.02107423
1521,1663243316786,-0.011606098,0.06429167,0.022295926
1522,1663243316790,-0.011606098,0.06795676,0.019852536
1523,1663243316790,-0.015271181,0.069178455,0.02107423
1524,1663243316795,-0.016492875,0.069178455,0.019852536
1525,1663243316795,-0.016492875,0.07284354,0.018630842
1526,1663243316800,-0.021379653,0.07650862,0.017409148
1527,1663243316800,-0.023823043,0.07895201,0.013744064
1528,1663243316805,-0.026266431,0.0801737,0.01007898
1529,1663243316805,-0.032374904,0.08506048,0.0076355906
1530,1663243316810,-0.03603999,0.08506048,0.0015271181
1531,1663243316810,-0.037261683,0.08872557,0.0027488125
1532,1663243316815,-0.04214846,0.091168955,0.003970507
1533,1663243316815,-0.043370154,0.09361234,0.0027488125
1534,1663243316820,-0.048256934,0.09849912,0.006413896
1535,1663243316820,-0.051922016,0.09972081,0.006413896
1536,1663243316825,-0.051922016,0.09972081,0.0076355906
1537,1663243316825,-0.056808796,0.103385895,0.01007898
1538,1663243316829,-0.05803049,0.103385895,0.008857286
1539,1663243316830,-0.060473878,0.1021642,0.008857286
1540,1663243316834,-0.06291727,0.09849912,0.0076355906
1541,1663243316834,-0.06291727,0.09483404,0.003970507
1542,1663243316840,-0.061695572,0.08750387,0.003970507
1543,1663243316840,-0.061695572,0.08506048,0.00030542363
1544,1663243316845,-0.060473878,0.081395395,-0.0009162709
1545,1663243316845,-0.056808796,0.075286925,-0.0009162709
1546,1663243316849,-0.05314371,0.069178455,-0.0045813546
1547,1663243316849,-0.049478628,0.065513365,-0.005803049
1548,1663243316854,-0.040926766,0.0581832,-0.010689827
1549,1663243316854,-0.033596598,0.05207473,-0.010689827
1550,1663243316860,-0.028709821,0.04718795,-0.013133216
1551,1663243316860,-0.02015796,0.03863609,-0.015576605
1552,1663243316864,-0.011606098,0.033749312,-0.011911522
1553,1663243316864,-0.004275931,0.028862532,-0.013133216
1554,1663243316869,0.0018325418,0.026419144,-0.010689827
1555,1663243316869,0.011606098,0.020310672,-0.0070247436
1556,1663243316874,0.016492875,0.021532366,-0.0045813546
1557,1663243316874,0.017714571,0.023975754,-0.0045813546
1558,1663243316879,0.021379653,0.02519745,-0.0021379655
1559,1663243316879,0.02260135,0.02519745,0.0015271181
1560,1663243316884,0.02260135,0.023975754,0.0027488125
1561,1663243316884,0.02260135,0.02519745,0.008857286
1562,1663243316889,0.021379653,0.028862532,0.013744064
1563,1663243316889,0.018936265,0.030084228,0.016187452
1564,1663243316894,0.016492875,0.027640838,0.02351762
1565,1663243316894,0.010384403,0.028862532,0.024739314
1566,1663243316899,0.009162709,0.028862532,0.028404398
1567,1663243316899,0.004275931,0.028862532,0.032069482
1568,1663243316904,0.0030542363,0.027640838,0.030847786
1569,1663243316904,0.00061084726,0.027640838,0.032069482
1570,1663243316908,-0.00061084726,0.03130592,0.03451287
1571,1663243316909,-0.0030542363,0.032527618,0.030847786
1572,1663243316914,-0.0030542363,0.037414394,0.030847786
1573,1663243316914,-0.004275931,0.039857782,0.028404398
1574,1663243316918,-0.0018325418,0.041079476,0.022295926
1575,1663243316918,-0.004275931,0.048409645,0.02107423
1576,1663243316924,-0.009162709,0.05451812,0.013744064
1577,1663243316924,-0.009162709,0.059404895,0.0076355906
1578,1663243316928,-0.011606098,0.056961507,0.0027488125
1579,1663243316929,-0.007941014,0.05451812,0.0015271181
1580,1663243316934,-0.011606098,0.055739813,-0.0045813546
1581,1663243316934,-0.010384403,0.05451812,-0.00335966
1582,1663243316939,-0.012827792,0.053296424,-0.0070247436
1583,1663243316939,-0.016492875,0.053296424,-0.009468133
1584,1663243316944,-0.016492875,0.053296424,-0.011911522
1585,1663243316944,-0.018936265,0.053296424,-0.013133216
1586,1663243316949,-0.02015796,0.04963134,-0.011911522
1587,1663243316949,-0.018936265,0.053296424,-0.010689827
1588,1663243316953,-0.023823043,0.048409645,-0.013133216
1589,1663243316954,-0.023823043,0.04718795,-0.013133216
1590,1663243316959,-0.023823043,0.042301174,-0.013133216
1591,1663243316960,-0.02260135,0.039857782,-0.013133216
1592,1663243316964,-0.025044737,0.0361927,-0.010689827
1593,1663243316964,-0.02015796,0.033749312,-0.010689827
1594,1663243316969,-0.018936265,0.027640838,-0.009468133
1595,1663243316969,-0.021379653,0.027640838,-0.013133216
1596,1663243316974,-0.02015796,0.023975754,-0.010689827
1597,1663243316974,-0.016492875,0.017867282,-0.010689827
1598,1663243316978,-0.014049487,0.009315421,-0.008246438
1599,1663243316979,-0.010384403,0.008093726,-0.0070247436
1600,1663243316984,-0.0018325418,0.0019852535,-0.0021379655
1601,1663243316984,0.00061084726,0.003206948,-0.005803049
1602,1663243316988,0.005497625,0.004428643,0.00030542363
1603,1663243316989,0.010384403,0.0019852535,0.0015271181
1604,1663243316993,0.012827792,0.0007635591,0.0015271181
1605,1663243316994,0.015271181,-0.004123219,0.0051922016
1606,1663243316999,0.021379653,-0.00045813544,0.0051922016
1607,1663243316999,0.02260135,0.0019852535,0.0027488125
1608,1663243317003,0.02260135,0.006872032,0.0027488125
1609,1663243317004,0.023823043,0.008093726,0.0027488125
1610,1663243317008,0.02260135,0.012980504,0.0015271181
1611,1663243317009,0.02260135,0.016645588,0.0051922016
1612,1663243317013,0.02015796,0.019088976,0.003970507
1613,1663243317013,0.012827792,0.02275406,0.0027488125
1614,1663243317018,0.011606098,0.026419144,0.006413896
1615,1663243317018,0.005497625,0.028862532,0.006413896
1616,1663243317023,-0.0018325418,0.033749312,0.006413896
1617,1663243317023,-0.007941014,0.033749312,0.008857286
1618,1663243317028,-0.012827792,0.034971006,0.008857286
1619,1663243317029,-0.018936265,0.032527618,0.012522369
1620,1663243317033,-0.025044737,0.032527618,0.01007898
1621,1663243317033,-0.03115321,0.028862532,0.011300675
1622,1663243317038,-0.03603999,0.026419144,0.01007898
1623,1663243317038,-0.03970507,0.019088976,0.008857286
1624,1663243317042,-0.04459185,0.019088976,0.0051922016
1625,1663243317043,-0.048256934,0.015423893,0.0051922016
1626,1663243317048,-0.048256934,0.01175881,-0.0021379655
1627,1663243317048,-0.048256934,0.0056503373,-0.00335966
1628,1663243317053,-0.05070032,0.008093726,-0.009468133
1629,1663243317053,-0.048256934,0.010537115,-0.010689827
1630,1663243317058,-0.05070032,0.01175881,-0.014354911
1631,1663243317058,-0.045813546,0.01175881,-0.018019995
1632,1663243317063,-0.04703524,0.014202199,-0.020463383
1633,1663243317063,-0.043370154,0.012980504,-0.019241689
1634,1663243317071,-0.04214846,0.01175881,-0.019241689
1635,1663243317071,-0.04214846,0.009315421,-0.020463383
1636,1663243317072,-0.040926766,0.006872032,-0.020463383
1637,1663243317072,-0.038483378,0.0056503373,-0.018019995
1638,1663243317108,-0.038483378,0.0056503373,-0.015576605
1639,1663243317109,-0.03603999,0.003206948,-0.014354911
1640,1663243317109,-0.034818295,0.010537115,-0.009468133
1641,1663243317109,-0.03115321,0.010537115,-0.008246438
1642,1663243317109,-0.028709821,0.012980504,-0.0070247436
1643,1663243317109,-0.026266431,0.019088976,-0.0009162709
1644,1663243317109,-0.027488127,0.023975754,0.00030542363
1645,1663243317109,-0.02015796,0.021532366,0.0051922016
1646,1663243317109,-0.02015796,0.026419144,0.008857286
1647,1663243317109,-0.02015796,0.026419144,0.006413896
1648,1663243317109,-0.018936265,0.02519745,0.008857286
1649,1663243317109,-0.021379653,0.026419144,0.01007898
1650,1663243317109,-0.017714571,0.020310672,0.008857286
1651,1663243317110,-0.017714571,0.01175881,0.01007898
1652,1663243317111,-0.018936265,0.006872032,0.0051922016
1653,1663243317112,-0.015271181,0.0019852535,0.0051922016
1654,1663243317117,-0.017714571,-0.004123219,0.0027488125
1655,1663243317117,-0.018936265,-0.01267508,-0.0045813546
1656,1663243317122,-0.016492875,-0.020005248,-0.0070247436
1657,1663243317122,-0.015271181,-0.021226943,-0.009468133
1658,1663243317126,-0.009162709,-0.02611372,-0.014354911
1659,1663243317126,-0.007941014,-0.028557109,-0.018019995
1660,1663243317131,-0.0018325418,-0.021226943,-0.021685077
1661,1663243317131,-0.007941014,-0.018783553,-0.024128467
1662,1663243317136,-0.0030542363,-0.020005248,-0.024128467
1663,1663243317136,0.00061084726,-0.021226943,-0.026571855
1664,1663243317141,0.00061084726,-0.013896775,-0.029015245
1665,1663243317141,0.0018325418,-0.010231691,-0.029015245
1666,1663243317147,-0.00061084726,-0.00045813544,-0.02779355
1667,1663243317147,-0.011606098,0.01175881,-0.029015245
1668,1663243317151,-0.016492875,0.016645588,-0.02779355
1669,1663243317151,-0.018936265,0.027640838,-0.02535016
1670,1663243317157,-0.028709821,0.030084228,-0.021685077
1671,1663243317157,-0.03970507,0.037414394,-0.022906773
1672,1663243317161,-0.05070032,0.04352287,-0.019241689
1673,1663243317161,-0.05314371,0.039857782,-0.016798299
1674,1663243317166,-0.06291727,0.041079476,-0.020463383
1675,1663243317166,-0.067804046,0.034971006,-0.019241689
1676,1663243317171,-0.07146913,0.032527618,-0.019241689
1677,1663243317171,-0.07269082,0.019088976,-0.021685077
1678,1663243317177,-0.070247434,0.008093726,-0.020463383
1679,1663243317177,-0.07269082,-0.006566608,-0.02535016
1680,1663243317182,-0.073912516,-0.018783553,-0.03268033
1681,1663243317182,-0.06658235,-0.033443887,-0.031458635
1682,1663243317187,-0.059252184,-0.044439137,-0.037567105
1683,1663243317187,-0.05070032,-0.055434387,-0.040010497
1684,1663243317192,-0.03970507,-0.06154286,-0.0387888
1685,1663243317192,-0.028709821,-0.06520794,-0.042453885
1686,1663243317197,-0.016492875,-0.06154286,-0.040010497
1687,1663243317197,-0.0030542363,-0.05787778,-0.04367558
1688,1663243317202,0.011606098,-0.05054761,-0.04123219
1689,1663243317202,0.015271181,-0.04199575,-0.0387888
1690,1663243317205,0.023823043,-0.032222193,-0.040010497
1691,1663243317205,0.026266431,-0.029778805,-0.0387888
1692,1663243317211,0.023823043,-0.02611372,-0.037567105
1693,1663243317211,0.02260135,-0.027335415,-0.037567105
1694,1663243317216,0.014049487,-0.028557109,-0.033902023
1695,1663243317217,0.0030542363,-0.028557109,-0.037567105
1696,1663243317221,-0.011606098,-0.02611372,-0.040010497
1697,1663243317221,-0.023823043,-0.02367033,-0.0387888
1698,1663243317225,-0.043370154,-0.02367033,-0.042453885
1699,1663243317225,-0.061695572,-0.017561859,-0.044897273
1700,1663243317230,-0.08246438,-0.006566608,-0.053449135
1701,1663243317230,-0.102011494,-0.00045813544,-0.055892523
1702,1663243317235,-0.11911522,0.0019852535,-0.06322269
1703,1663243317235,-0.13744064,0.0056503373,-0.07543964
1704,1663243317240,-0.15820944,0.006872032,-0.086434886
1705,1663243317240,-0.17775655,0.008093726,-0.09743014
1706,1663243317245,-0.19241689,0.006872032,-0.10964708
1707,1663243317245,-0.20585553,0.006872032,-0.120642334
1708,1663243317250,-0.22051586,0.0019852535,-0.13285927
1709,1663243317250,-0.22784603,-0.006566608,-0.14141114
1710,1663243317255,-0.23517619,-0.016340164,-0.14751962
1711,1663243317255,-0.23639789,-0.033443887,-0.1524064
1712,1663243317260,-0.23639789,-0.04688253,-0.15362808
1713,1663243317260,-0.2327328,-0.06398625,-0.15484978
1714,1663243317265,-0.22418094,-0.07986828,-0.1524064
1715,1663243317265,-0.21562909,-0.094528615,-0.1487413
1716,1663243317270,-0.20463383,-0.10552386,-0.14141114
1717,1663243317270,-0.19363858,-0.116519116,-0.13652436
1718,1663243317274,-0.17775655,-0.12507097,-0.12430742
1719,1663243317275,-0.17286977,-0.12384928,-0.11942064
1720,1663243317280,-0.1643179,-0.12507097,-0.11209047
1721,1663243317280,-0.15698774,-0.122627586,-0.102316916
1722,1663243317284,-0.15576605,-0.12507097,-0.098651834
1723,1663243317284,-0.15332267,-0.122627586,-0.09009997
1724,1663243317290,-0.15698774,-0.118962504,-0.0839915
1725,1663243317290,-0.16309622,-0.12507097,-0.0839915
1726,1663243317295,-0.16676131,-0.12995775,-0.080326416
1727,1663243317295,-0.17164809,-0.1446181,-0.07910472
1728,1663243317300,-0.17897825,-0.1641652,-0.086434886
1729,1663243317300,-0.18264332,-0.184934,-0.08154811
1730,1663243317304,-0.18386503,-0.21425468,-0.09009997
1731,1663243317304,-0.18386503,-0.24479704,-0.096208446
1732,1663243317309,-0.18264332,-0.2753394,-0.09743014
1733,1663243317309,-0.18264332,-0.300995,-0.108425386
1734,1663243317314,-0.17653486,-0.33153734,-0.118198946
1735,1663243317314,-0.17409147,-0.3645231,-0.13041589
1736,1663243317319,-0.17164809,-0.39506546,-0.1524064
1737,1663243317319,-0.17286977,-0.4280512,-0.17439689
1738,1663243317325,-0.17531316,-0.45859358,-0.20249587
1739,1663243317325,-0.18142164,-0.49280104,-0.2391467
1740,1663243317330,-0.1887518,-0.5233434,-0.26968905
1741,1663243317330,-0.19730367,-0.54533386,-0.3051182
1742,1663243317335,-0.20707722,-0.5661027,-0.34176904
1743,1663243317335,-0.21685077,-0.57831967,-0.3735331
1744,1663243317340,-0.23151112,-0.5880932,-0.40774053
1745,1663243317340,-0.24983653,-0.59542334,-0.4382829
1746,1663243317344,-0.26327518,-0.6064186,-0.4639385
1747,1663243317344,-0.28770906,-0.6137488,-0.49203748
1748,1663243317349,-0.31336465,-0.61985725,-0.51402795
1749,1663243317350,-0.343907,-0.6345176,-0.5323534
1750,1663243317354,-0.38422292,-0.6503996,-0.5506788
1751,1663243317354,-0.431869,-0.66628164,-0.5665608
1752,1663243317359,-0.48928866,-0.66628164,-0.573891
1753,1663243317359,-0.55770355,-0.6577298,-0.5824429
1754,1663243317364,-0.635892,-0.63573927,-0.5873296
1755,1663243317364,-0.7189672,-0.6076403,-0.5824429
1756,1663243317369,-0.80815095,-0.5697678,-0.573891
1757,1663243317370,-0.9058865,-0.52945185,-0.5592307
1758,1663243317373,-1.0085088,-0.49035764,-0.54212695
1759,1663243317374,-1.1135745,-0.4573719,-0.52135813
1760,1663243317379,-1.2259705,-0.41949937,-0.49814594
1761,1663243317379,-1.3371446,-0.37918344,-0.47371206
1762,1663243317384,-1.4458754,-0.34986275,-0.44439137
1763,1663243317384,-1.5607147,-0.31565532,-0.4199575
1764,1663243317389,-1.6670022,-0.28266957,-0.38575006
1765,1663243317389,-1.7610726,-0.23624517,-0.35276428
1766,1663243317393,-1.8429261,-0.1861557,-0.31733516
1767,1663243317394,-1.9150062,-0.13484453,-0.27701923
1768,1663243317398,-1.9736475,-0.08964183,-0.2391467
1769,1663243317399,-2.01885,-0.059099473,-0.20371756
1770,1663243317404,-2.0493925,-0.04199575,-0.16462334
1771,1663243317404,-2.0726047,-0.037108973,-0.13530266
1772,1663243317409,-2.0836,-0.040774055,-0.10353861
1773,1663243317409,-2.0799348,-0.038330667,-0.072996244
1774,1663243317414,-2.067718,-0.02367033,-0.049784053
1775,1663243317414,-2.035954,-0.0029015245,-0.022906773
1776,1663243317418,-1.995638,0.017867282,-0.0045813546
1777,1663243317418,-1.9492136,0.03130592,0.01007898
1778,1663243317423,-1.8893505,0.034971006,0.041843038
1779,1663243317423,-1.8270441,0.032527618,0.07605048
1780,1663243317428,-1.7561859,0.010537115,0.11025793
1781,1663243317428,-1.675554,-0.028557109,0.13835691
1782,1663243317434,-1.5961438,-0.08108997,0.15301724
1783,1663243317434,-1.5069602,-0.12995775,0.17012095
1784,1663243317438,-1.4202199,-0.18982078,0.17256436
1785,1663243317439,-1.3298144,-0.26556584,0.17256436
1786,1663243317443,-1.2430742,-0.35108447,0.16645588
1787,1663243317444,-1.1575556,-0.44759834,0.15057385
1788,1663243317448,-1.0757021,-0.55022067,0.12736166
1789,1663243317448,-0.99507016,-0.6565081,0.09926268
1790,1663243317454,-0.9193251,-0.768904,0.06383354
1791,1663243317454,-0.84968853,-0.88496494,0.022295926
1792,1663243317458,-0.7824953,-1.0083561,-0.021685077
1793,1663243317458,-0.72141063,-1.1329689,-0.06810947
1794,1663243317463,-0.6615476,-1.25636,-0.114533864
1795,1663243317463,-0.60779303,-1.3797512,-0.16340165
1796,1663243317468,-0.5589253,-1.4994773,-0.20982604
1797,1663243317468,-0.5161659,-1.6069864,-0.25502872
1798,1663243317473,-0.47096324,-1.708387,-0.29412296
1799,1663243317473,-0.4355341,-1.8024576,-0.3319955
1800,1663243317478,-0.40621343,-1.8916413,-0.369868
1801,1663243317478,-0.38666633,-1.9783815,-0.40529716
1802,1663243317483,-0.37200597,-2.0626786,-0.43706122
1803,1663243317483,-0.3683409,-2.1481972,-0.47126865
1804,1663243317487,-0.37078428,-2.2227204,-0.49814594
1805,1663243317488,-0.38177955,-2.2899137,-0.52257985
1806,1663243317492,-0.40377003,-2.336338,-0.5519005
1807,1663243317493,-0.42942563,-2.360772,-0.5714476
1808,1663243317497,-0.459968,-2.3632154,-0.5909947
1809,1663243317498,-0.5015056,-2.3387814,-0.60932016
1810,1663243317502,-0.5467083,-2.2899137,-0.6215371
1811,1663243317502,-0.59557605,-2.225164,-0.6252022
1812,1663243317507,-0.6456655,-2.1396453,-0.62398046
1813,1663243317508,-0.6969767,-2.0321362,-0.6166503
1814,1663243317513,-0.7507313,-1.920962,-0.60443336
1815,1663243317513,-0.8020424,-1.8110094,-0.5873296
1816,1663243317517,-0.85091025,-1.7035003,-0.5592307
1817,1663243317518,-0.9009997,-1.5972129,-0.5286883
1818,1663243317522,-0.94009393,-1.5031424,-0.49203748
1819,1663243317523,-0.9816315,-1.4164021,-0.44805646
1820,1663243317529,-1.0170606,-1.3602041,-0.40529716
1821,1663243317529,-1.0500464,-1.3382137,-0.34909922
1822,1663243317532,-1.0781454,-1.308893,-0.29656634
1823,1663243317533,-1.1062444,-1.2661337,-0.24525517
1824,1663243317535,-1.1306783,-1.2319262,-0.1963874
1825,1663243317540,-1.1465603,-1.2136008,-0.1524064
1826,1663243317541,-1.163664,-1.2160442,-0.10964708
1827,1663243317545,-1.1722159,-1.2184876,-0.06322269
1828,1663243317545,-1.1771027,-1.2136008,-0.021685077
1829,1663243317549,-1.179546,-1.1793933,0.013744064
1830,1663243317549,-1.1746593,-1.1427425,0.041843038
1831,1663243317554,-1.1685508,-1.1293038,0.060168456
1832,1663243317554,-1.1575556,-1.120752,0.07605048
1833,1663243317560,-1.1453387,-1.1122001,0.08215895
1834,1663243317560,-1.1331216,-1.0987616,0.079715565
1835,1663243317564,-1.1184614,-1.0877663,0.06627693
1836,1663243317564,-1.1001359,-1.088988,0.04795151
1837,1663243317571,-1.0805888,-1.1060916,0.02107423
1838,1663243317571,-1.0598199,-1.1427425,-0.010689827
1839,1663243318090,-0.1655396,-4.206905,-4.6251826
1840,1663243318090,-0.19119519,-4.1971316,-4.6447296
1841,1663243318090,-0.22173755,-4.191023,-4.6581683
1842,1663243318090,-0.2547233,-4.180028,-4.667942
1843,1663243318090,-0.29503924,-4.1568155,-4.6740503
1844,1663243318098,-0.33535513,-4.13116,-4.6740503
1845,1663243318098,-0.38300124,-4.0993958,-4.6740503
1846,1663243318098,-0.43309072,-4.0676317,-4.6691637
1847,1663243318098,-0.49173203,-4.030981,-4.6581683
1848,1663243318103,-0.5515951,-3.9955518,-4.6471734
1849,1663243318103,-0.6139015,-3.967453,-4.6337347
1850,1663243318108,-0.6810947,-3.9454625,-4.6154094
1851,1663243318109,-0.7495096,-3.9173634,-4.598305
1852,1663243318113,-0.81181604,-3.8965948,-4.576315
1853,1663243318113,-0.8753441,-3.883156,-4.560433
1854,1663243318118,-0.93642884,-3.8697174,-4.5384426
1855,1663243318118,-0.9926268,-3.8526137,-4.518895
1856,1663243318123,-1.0402728,-3.8281798,-4.495683
1857,1663243318123,-1.0866972,-3.803746,-4.4700274
1858,1663243318127,-1.1306783,-3.7695384,-4.4382634
1859,1663243318127,-1.163664,-3.7365527,-4.4052777
1860,1663243318133,-1.2027583,-3.69135,-4.36374
1861,1663243318133,-1.2430742,-3.651034,-4.3234243
1862,1663243318139,-1.2760599,-3.603388,-4.2745566
1863,1663243318140,-1.3017155,-3.563072,-4.215915
1864,1663243318143,-1.3310362,-3.5288646,-4.156052
1865,1663243318143,-1.3591352,-3.4934354,-4.0851936
1866,1663243318148,-1.3847908,-3.4665582,-4.0155573
1867,1663243318148,-1.4153332,-3.447011,-3.9459205
1868,1663243318152,-1.4373236,-3.4237988,-3.872619
1869,1663243318153,-1.4642009,-3.4018085,-3.8017607
1870,1663243318158,-1.4910781,-3.383483,-3.735789
1871,1663243318158,-1.5191771,-3.3529406,-3.6673741
1872,1663243318163,-1.5423893,-3.3236198,-3.5977376
1873,1663243318163,-1.5631582,-3.2906342,-3.5317662
1874,1663243318167,-1.5851487,-3.262535,-3.4670162
1875,1663243318168,-1.6022524,-3.2405448,-3.4095967
1876,1663243318172,-1.6181344,-3.2258844,-3.3521771
1877,1663243318173,-1.627908,-3.2124457,-3.3057528
1878,1663243318177,-1.6401249,-3.2063372,-3.2629933
1879,1663243318177,-1.64379,-3.2051156,-3.227564
1880,1663243318183,-1.6535635,-3.2075589,-3.1994653
1881,1663243318183,-1.6560069,-3.211224,-3.1713662
1882,1663243318187,-1.6572286,-3.203894,-3.1469324
1883,1663243318187,-1.6645588,-3.1780856,-3.1249418
1884,1663243318192,-1.6706673,-3.1450999,-3.1029513
1885,1663243318192,-1.6743324,-3.1072273,-3.079739
1886,1663243318197,-1.6841059,-3.0705764,-3.056527
1887,1663243318197,-1.6889926,-3.0327039,-3.0296497
1888,1663243318202,-1.6963228,-2.9997182,-3.0027723
1889,1663243318202,-1.7012097,-2.9691758,-2.9710083
1890,1663243318207,-1.7073181,-2.9361901,-2.9392443
1891,1663243318207,-1.7122048,-2.9068694,-2.9062586
1892,1663243318211,-1.7122048,-2.879992,-2.873273
1893,1663243318212,-1.7122048,-2.844563,-2.8427305
1894,1663243318217,-1.7073181,-2.8115773,-2.8121881
1895,1663243318217,-1.6999879,-2.7785914,-2.7779806
1896,1663243318222,-1.6889926,-2.749271,-2.7437732
1897,1663243318222,-1.6731106,-2.7223935,-2.7120092
1898,1663243318227,-1.6547853,-2.6955163,-2.6741366
1899,1663243318227,-1.6340164,-2.663752,-2.639929
1900,1663243318232,-1.6083609,-2.6246579,-2.5983915
1901,1663243318233,-1.5790402,-2.580677,-2.555632
1902,1663243318236,-1.5423893,-2.5305874,-2.5092077
1903,1663243318237,-1.5069602,-2.4707243,-2.4627833
1904,1663243318242,-1.4654226,-2.4157481,-2.4139156
1905,1663243318243,-1.4214416,-2.3668804,-2.3613827
1906,1663243318246,-1.3750172,-2.320456,-2.3088498
1907,1663243318247,-1.323706,-2.2740316,-2.2538736
1908,1663243318252,-1.2711731,-2.2178338,-2.196454
1909,1663243318252,-1.2125318,-2.1457536,-2.132926
1910,1663243318257,-1.151447,-2.0687869,-2.068176
1911,1663243318257,-1.0854756,-1.996707,-2.004648
1912,1663243318262,-1.0170606,-1.9319571,-1.9337897
1913,1663243318263,-0.9510892,-1.8745375,-1.860488
1914,1663243318267,-0.883896,-1.8244481,-1.784743
1915,1663243318267,-0.81914616,-1.7755803,-1.7064018
1916,1663243318272,-0.7543964,-1.7303776,-1.6269916
1917,1663243318273,-0.6847598,-1.692505,-1.5451381
1918,1663243318276,-0.62245333,-1.6619626,-1.465728
1919,1663243318276,-0.5601469,-1.6350853,-1.3875395
1920,1663243318284,-0.49539712,-1.6228684,-1.3117945
1921,1663243318284,-0.4343124,-1.6179817,-1.2421579
1922,1663243318285,-0.38055784,-1.6179817,-1.1786298
1923,1663243318286,-0.32558158,-1.6253119,-1.1187668
1924,1663243318291,-0.27304873,-1.6350853,-1.0662339
1925,1663243318291,-0.22418094,-1.648524,-1.0198095
1926,1663243318296,-0.17897825,-1.6656277,-0.9770502
1927,1663243318296,-0.13866232,-1.6851748,-0.94039935
1928,1663243318301,-0.099568106,-1.7035003,-0.9025268
1929,1663243318302,-0.067804046,-1.7242692,-0.8670977
1930,1663243318306,-0.040926766,-1.7511464,-0.83533365
1931,1663243318306,-0.017714571,-1.7792454,-0.8023479
1932,1663243318310,0.0018325418,-1.8073443,-0.7718055
1933,1663243318312,0.018936265,-1.8342216,-0.74126315
1934,1663243318317,0.03115321,-1.8574338,-0.7094991
1935,1663243318317,0.04214846,-1.8733158,-0.67406994
1936,1663243318320,0.049478628,-1.8891978,-0.64352757
1937,1663243318322,0.054365408,-1.8989714,-0.60809845
1938,1663243318325,0.056808796,-1.9038582,-0.5751127
1939,1663243318325,0.054365408,-1.9136318,-0.5433486
1940,1663243318331,0.05070032,-1.920962,-0.5128063
1941,1663243318331,0.043370154,-1.9307355,-0.4871507
1942,1663243318335,0.03115321,-1.936844,-0.4614951
1943,1663243318336,0.017714571,-1.9453958,-0.4382829
1944,1663243318340,-0.00061084726,-1.9551693,-0.4199575
1945,1663243318341,-0.016492875,-1.9588344,-0.40529716
1946,1663243318345,-0.037261683,-1.9649429,-0.39063683
1947,1663243318346,-0.056808796,-1.9722731,-0.37841988
1948,1663243318350,-0.08246438,-1.9820466,-0.36742464
1949,1663243318351,-0.10567658,-1.9905986,-0.353986
1950,1663243318355,-0.13011047,-1.9942635,-0.34543413
1951,1663243318356,-0.15454435,-1.9930419,-0.3319955
1952,1663243318359,-0.17653486,-1.9918202,-0.31367007
1953,1663243318361,-0.19974706,-1.980825,-0.29900974
1954,1663243318365,-0.22418094,-1.9710513,-0.27701923
1955,1663243318366,-0.24617144,-1.9661646,-0.25502872
1956,1663243318370,-0.26816195,-1.9649429,-0.22937314
1957,1663243318370,-0.28526568,-1.9612778,-0.19760908
1958,1663243318374,-0.3011477,-1.9515042,-0.16462334
1959,1663243318375,-0.3170297,-1.9405091,-0.13041589
1960,1663243318380,-0.33046836,-1.9319571,-0.09009997
1961,1663243318380,-0.34146363,-1.9234053,-0.049784053
1962,1663243318385,-0.35245886,-1.9160751,-0.008246438
1963,1663243318386,-0.36467582,-1.9111884,0.036956258
1964,1663243318390,-0.3732277,-1.9063016,0.08582404
1965,1663243318391,-0.37933615,-1.896528,0.13469182
1966,1663243318394,-0.38666633,-1.8916413,0.19088978
1967,1663243318395,-0.39766157,-1.880646,0.2483094
1968,1663243318400,-0.40132666,-1.8769809,0.31061584
1969,1663243318400,-0.40743512,-1.8672074,0.37903073
1970,1663243318406,-0.41720867,-1.8623205,0.4462239
1971,1663243318406,-0.42576054,-1.852547,0.5195256
1972,1663243318410,-0.4379775,-1.8403301,0.59282726
1973,1663243318410,-0.45019442,-1.8220047,0.66612893
1974,1663243318414,-0.45874628,-1.8097878,0.7430957
1975,1663243318415,-0.4734066,-1.792684,0.813954
1976,1663243318422,-0.49051034,-1.7731369,0.88114715
1977,1663243318422,-0.503949,-1.7560332,0.9495621
1978,1663243318424,-0.5210527,-1.7438163,1.009425
1979,1663243318425,-0.5393781,-1.732821,1.0668447
1980,1663243318429,-0.5601469,-1.7242692,1.1193776
1981,1663243318429,-0.58213747,-1.7206041,1.1633586
1982,1663243318434,-0.60534966,-1.7193823,1.2073396
1983,1663243318435,-0.6310052,-1.716939,1.2464339
1984,1663243318439,-0.65177405,-1.7218257,1.2794195
1985,1663243318440,-0.6762079,-1.7242692,1.3111837
1986,1663243318444,-0.7006418,-1.7267125,1.3392826
1987,1663243318444,-0.7250757,-1.7340426,1.3600514
1988,1663243318449,-0.7482879,-1.7425945,1.3795985
1989,1663243318449,-0.7690567,-1.7523681,1.3954805
1990,1663243318454,-0.7886038,-1.764585,1.4076976
1991,1663243318455,-0.80448586,-1.7780236,1.4162494
1992,1663243318459,-0.8179245,-1.7902406,1.4235796
1993,1663243318459,-0.8252546,-1.8036792,1.4309098
1994,1663243318464,-0.8325848,-1.8097878,1.4345748
1995,1663243318465,-0.83136314,-1.8158962,1.4431267
1996,1663243318469,-0.83502823,-1.8183396,1.4492351
1997,1663243318470,-0.8325848,-1.8183396,1.4553436
1998,1663243318473,-0.82769805,-1.8268914,1.4675605
1999,1663243318474,-0.82647634,-1.8305565,1.4785558
2000,1663243318478,-0.8179245,-1.8391083,1.4907727
2001,1663243318479,-0.8105943,-1.8501036,1.5066547
2002,1663243318483,-0.80082077,-1.864764,1.51765
2003,1663243318483,-0.7947123,-1.8757592,1.5347537
2004,1663243318488,-0.78493875,-1.8879762,1.5481924
2005,1663243318489,-0.77883023,-1.8953063,1.5604093
2006,1663243318493,-0.77272177,-1.9026365,1.5787348
2007,1663243318493,-0.767835,-1.9099667,1.5958384
2008,1663243318498,-0.7666133,-1.9221836,1.6092771
2009,1663243318499,-0.76050484,-1.9405091,1.6288242
2010,1663243318504,-0.76050484,-1.9576128,1.6422628
2011,1663243318504,-0.76050484,-1.9759382,1.6593666
2012,1663243318508,-0.7592831,-1.9942635,1.6789137
2013,1663243318509,-0.76050484,-2.012589,1.6984608
2014,1663243318513,-0.75806147,-2.028471,1.721673
2015,1663243318513,-0.7592831,-2.0382445,1.7448852
2016,1663243318520,-0.75683975,-2.0504615,1.7717625
2017,1663243318521,-0.7543964,-2.060235,1.8035265
2018,1663243318523,-0.75317466,-2.0748954,1.8352906
2019,1663243318524,-0.7495096,-2.0834472,1.8719414
2020,1663243318531,-0.7446228,-2.0993292,1.9134791
2021,1663243318532,-0.7434011,-2.112768,1.953795
2022,1663243318532,-0.74095774,-2.1262066,1.9965543
2023,1663243318535,-0.73729265,-2.1372018,2.045422
2024,1663243318536,-0.73607093,-2.1481972,2.0942898
2025,1663243318540,-0.7311842,-2.156749,2.149266
2026,1663243318540,-0.7275191,-2.1640792,2.2042422
2027,1663243318545,-0.7262974,-2.1689658,2.2628837
2028,1663243318545,-0.7250757,-2.176296,2.3239684
2029,1663243318550,-0.7226323,-2.1836262,2.3887181
2030,1663243318550,-0.723854,-2.188513,2.4510245
2031,1663243318555,-0.7250757,-2.1982865,2.5182178
2032,1663243318555,-0.7311842,-2.204395,2.5866327
2033,1663243318559,-0.739736,-2.2117252,2.6489391
2034,1663243318560,-0.7470662,-2.220277,2.7161324
2035,1663243318565,-0.75317466,-2.228829,2.7808821
2036,1663243318565,-0.7629482,-2.2386024,2.8444102
2037,1663243318571,-0.7739435,-2.2495978,2.9103818
2038,1663243318571,-0.78493875,-2.2642581,2.9726882
2039,1663243318592,-0.8057075,-2.2789185,3.093636
2040,1663243318592,-0.8130377,-2.292357,3.1559424
2041,1663243318592,-0.82281125,-2.3009088,3.2170272
2042,1663243318592,-0.8301414,-2.3033524,3.2805552
2043,1663243318592,-0.8301414,-2.3119042,3.3428617
2044,1663243318592,-0.8289197,-2.3216777,3.408833
2045,1663243318592,-0.82769805,-2.3277862,3.468696
2046,1663243318595,-0.82403296,-2.341225,3.5310025
2047,1663243318595,-0.81914616,-2.348555,3.5920873
2048,1663243318600,-0.80815095,-2.3595502,3.652103
2049,1663243318600,-0.79593396,-2.368102,3.7107444
2050,1663243318604,-0.78493875,-2.3790975,3.7657206
2051,1663243318604,-0.767835,-2.3913143,3.8219185
2052,1663243318609,-0.75317466,-2.4035313,3.8781166
2053,1663243318609,-0.72874075,-2.4145265,3.9318712
2054,1663243318615,-0.71530217,-2.4279652,3.9868474
2055,1663243318615,-0.7006418,-2.4389603,4.0406017
2056,1663243318619,-0.6847598,-2.4536207,4.0906916
2057,1663243318619,-0.6652127,-2.468281,4.1383376
2058,1663243318625,-0.6493306,-2.480498,4.184762
2059,1663243318625,-0.635892,-2.4939365,4.2226343
2060,1663243318629,-0.6212317,-2.512262,4.260507
2061,1663243318629,-0.62245333,-2.5257008,4.2886057
2062,1663243318634,-0.60779303,-2.5428045,4.315483
2063,1663243318634,-0.6102364,-2.5562432,4.3338084
2064,1663243318639,-0.6029062,-2.5721252,4.348469
2065,1663243318639,-0.6016846,-2.584342,4.360686
2066,1663243318644,-0.5943544,-2.5941155,4.3680162
2067,1663243318644,-0.5894676,-2.6014457,4.372903
2068,1663243318649,-0.57969403,-2.612441,4.379011
2069,1663243318649,-0.5686988,-2.6173277,4.380233
2070,1663243318653,-0.56136864,-2.6197712,4.380233
2071,1663243318653,-0.5467083,-2.6197712,4.380233
2072,1663243318658,-0.52960455,-2.6185496,4.376568
2073,1663243318659,-0.51372254,-2.616106,4.3704596
2074,1663243318664,-0.49784052,-2.6075542,4.3619075
2075,1663243318665,-0.4770717,-2.600224,4.3496904
2076,1663243318669,-0.4563029,-2.5904505,4.3338084
2077,1663243318669,-0.43675578,-2.580677,4.3142614
2078,1663243318674,-0.41598698,-2.56846,4.287384
2079,1663243318674,-0.40010494,-2.547691,4.25562
2080,1663243318680,-0.38177955,-2.524479,4.2226343
2081,1663243318680,-0.3695626,-2.492715,4.1823187
2082,1663243318683,-0.35734564,-2.4597292,4.1383376
2083,1663243318684,-0.34879377,-2.4255219,4.0906916
2084,1663243318688,-0.34146363,-2.3900926,4.03938
2085,1663243318688,-0.33413345,-2.3534417,3.9844038
2086,1663243318694,-0.32924667,-2.3180127,3.9257627
2087,1663243318694,-0.3206948,-2.2789185,3.8634562
2088,1663243318698,-0.31458634,-2.232494,3.7999282
2089,1663243318698,-0.3048128,-2.1848478,3.7364
2090,1663243318704,-0.29381752,-2.1372018,3.6704285
2091,1663243318704,-0.2791572,-2.0895557,3.6030827
2092,1663243318708,-0.26083177,-2.040688,3.533446
2093,1663243318708,-0.23884128,-1.9905986,3.461366
2094,1663243318713,-0.21074231,-1.9441742,3.392951
2095,1663243318714,-0.18142164,-1.896528,3.320871
2096,1663243318718,-0.13988402,-1.8562121,3.2536778
2097,1663243318718,-0.09834641,-1.8122311,3.1889281
2098,1663243318723,-0.04703524,-1.7694718,3.129065
2099,1663243318724,0.0018325418,-1.7193823,3.0728672
2100,1663243318729,0.061695572,-1.6717362,3.0239995
2101,1663243318729,0.12033691,-1.6179817,2.9800184
2102,1663243318733,0.18386503,-1.5691139,2.9384809
2103,1663243318733,0.24983653,-1.5226895,2.9030516
2104,1663243318738,0.31825143,-1.4774868,2.8688443
2105,1663243318738,0.38055784,-1.4396143,2.8297498
2106,1663243318743,0.45019442,-1.4017417,2.7930992
2107,1663243318743,0.51127917,-1.3602041,2.752783
2108,1663243318748,0.5686988,-1.3211099,2.7100239
2109,1663243318748,0.62367505,-1.2783506,2.6672645
2110,1663243318753,0.6774296,-1.2294828,2.622062
2111,1663243318753,0.7250757,-1.1745065,2.573194
2112,1663243318758,0.7702784,-1.120752,2.5328782
2113,1663243318758,0.810747,-1.0694408,2.4876754
2114,1663243318763,0.8486196,-1.0120212,2.4449162
2115,1663243318763,0.8840487,-0.95337987,2.4046001
2116,1663243318767,0.91825616,-0.8996253,2.3667276
2117,1663243318768,0.9500202,-0.8360972,2.3312986
2118,1663243318773,0.9817843,-0.77745587,2.298313
2119,1663243318773,1.0184351,-0.7261447,2.2689922
2120,1663243318778,1.0514208,-0.680942,2.2421148
2121,1663243318778,1.0782981,-0.6381827,2.214016
2122,1663243318783,1.1051754,-0.59297997,2.193247
2123,1663243318783,1.1344961,-0.55022067,2.1724782
2124,1663243318788,1.15893,-0.50990474,2.1590397
2125,1663243318788,1.1833638,-0.46958882,2.1504877
2126,1663243318793,1.2041327,-0.4304946,2.1394925
2127,1663243318793,1.2249014,-0.39995223,2.1309407
2128,1663243318798,1.2395618,-0.37429667,2.1260538
2129,1663243318799,1.2517787,-0.35719293,2.1187236
2130,1663243318802,1.262774,-0.3425326,2.117502
2131,1663243318803,1.2688825,-0.33275905,2.1162803
2132,1663243318807,1.2749909,-0.33031565,2.1150587
2133,1663243318807,1.2847645,-0.3242072,2.1236105
2134,1663243318812,1.2908729,-0.3193204,2.1321623
2135,1663243318813,1.2957598,-0.32542887,2.1431577
2136,1663243318818,1.3030899,-0.32909396,2.1590397
2137,1663243318818,1.3079767,-0.33031565,2.1761434
2138,1663243318823,1.3116418,-0.33642414,2.1956904
2139,1663243318823,1.3177502,-0.34497598,2.2189026
2140,1663243318828,1.3226371,-0.34741938,2.2384498
2141,1663243318828,1.3275238,-0.3461977,2.2604403
2142,1663243318832,1.3324106,-0.33886752,2.2885392
2143,1663243318832,1.3385191,-0.32909396,2.3129733
2144,1663243318838,1.3434058,-0.31565532,2.3386288
2145,1663243318838,1.3531793,-0.2973299,2.3691711
2146,1663243318842,1.3580662,-0.2741177,2.3960483
2147,1663243318842,1.366618,-0.24601874,2.4278123
2148,1663243318847,1.3739482,-0.22158484,2.46202
2149,1663243318847,1.3776133,-0.19959435,2.4950056
2150,1663243318852,1.3800566,-0.17882554,2.5292132
2151,1663243318852,1.3886086,-0.1641652,2.5670855
2152,1663243318857,1.394717,-0.14828317,2.6037364
2153,1663243318857,1.4008255,-0.13973132,2.6403873
2154,1663243318862,1.4057122,-0.13117945,2.6807032
2155,1663243318863,1.4130424,-0.12873606,2.7124672
2156,1663243318867,1.4215943,-0.13117945,2.7442312
2157,1663243318867,1.4313679,-0.13484453,2.7759953
2158,1663243318871,1.4435848,-0.14339639,2.8040943
2159,1663243318871,1.450915,-0.14706148,2.8236415
2160,1663243318877,1.4680187,-0.15194826,2.8456318
2161,1663243318877,1.4790139,-0.15316994,2.861514
2162,1663243318881,1.4900092,-0.15927842,2.8749526
2163,1663243318881,1.5071129,-0.17027368,2.885948
2164,1663243318886,1.5217732,-0.18126893,2.8957214
2165,1663243318886,1.5339901,-0.18982078,2.8981647
2166,1663243318891,1.5498722,-0.19959435,2.8993864
2167,1663243318892,1.566976,-0.20325942,2.9030516
2168,1663243318896,1.5840796,-0.20570281,2.8993864
2169,1663243318896,1.6011834,-0.20570281,2.896943
2170,1663243318901,1.614622,-0.2093679,2.8908346
2171,1663243318901,1.6353909,-0.21303298,2.8835044
2172,1663243318905,1.6451644,-0.2093679,2.8761742
2173,1663243318906,1.6622682,-0.2081462,2.8688443
2174,1663243318910,1.6757067,-0.2081462,2.857849
2175,1663243318910,1.686702,-0.2093679,2.8468537
2176,1663243318916,1.6940322,-0.21303298,2.833415
2177,1663243318916,1.7013624,-0.21669807,2.8224196
2178,1663243318920,1.7099142,-0.21303298,2.8114245
2179,1663243318920,1.7172444,-0.20448112,2.8065376
2180,1663243318925,1.7294613,-0.19104248,2.8028727
2181,1663243318925,1.746565,-0.17393875,2.801651
2182,1663243318930,1.7648904,-0.16660859,2.8028727
2183,1663243318930,1.7844375,-0.15683503,2.8089812
2184,1663243318935,1.802763,-0.1421747,2.8187547
2185,1663243318935,1.8271968,-0.12751436,2.8321934
2186,1663243318940,1.8577392,-0.11774081,2.8517404
2187,1663243318940,1.8870599,-0.11285403,2.8749526
2188,1663243318945,1.9212674,-0.11407573,2.90183
2189,1663243318945,1.9603616,-0.118962504,2.9299288
2190,1663243318950,2.0006776,-0.12629268,2.953141
2191,1663243318950,2.0446584,-0.13728791,2.98124
2192,1663243318955,2.0935264,-0.14950487,3.0068955
2193,1663243318955,2.1411724,-0.1641652,3.025221
2194,1663243318960,2.1937053,-0.17393875,3.0459898
2195,1663243318960,2.2450163,-0.18371232,3.0594285
2196,1663243318965,2.298771,-0.19959435,3.0728672
2197,1663243318965,2.3525255,-0.21303298,3.0850842
2198,1663243318970,2.4038367,-0.22769332,3.0899708
2199,1663243318970,2.4575913,-0.23624517,3.0924141
2200,1663243318975,2.5101242,-0.24724042,3.0948577
2201,1663243318975,2.5651004,-0.25945738,3.0924141
2202,1663243318980,2.6237416,-0.27045262,3.0911925
2203,1663243318980,2.6811614,-0.2777828,3.0838623
2204,1663243318984,2.7422462,-0.28877804,3.0740888
2205,1663243318984,2.798444,-0.28877804,3.065537
2206,1663243318989,2.8631938,-0.29610822,3.0557635
2207,1663243318989,2.9206135,-0.2973299,3.0398815
2208,1663243318995,2.9768114,-0.300995,3.0264428
2209,1663243318995,3.0354528,-0.30221668,3.009339
2210,1663243319000,3.090429,-0.31321192,2.993457
2211,1663243319000,3.146627,-0.31321192,2.9800184
2212,1663243319005,3.1979382,-0.31565532,2.9678013
2213,1663243319005,3.2443626,-0.31076854,2.9543629
2214,1663243319009,3.2920086,-0.30466008,2.9482543
2215,1663243319009,3.338433,-0.2997733,2.9433675
2216,1663243319014,3.382414,-0.29244313,2.9397025
2217,1663243319014,3.4251733,-0.29122144,2.9384809
2218,1663243319019,3.474041,-0.28633466,2.9470327
2219,1663243319019,3.5216873,-0.27900448,2.9543629
2220,1663243319024,3.57422,-0.26312247,2.969023
2221,1663243319024,3.6279745,-0.24724042,2.9885702
2222,1663243319029,3.6829507,-0.22524993,3.0081174
2223,1663243319029,3.7428138,-0.20570281,3.0325513
2224,1663243319034,3.8038986,-0.184934,3.0618718
2225,1663243319035,3.866205,-0.15683503,3.0924141
2226,1663243319582,-1.3102673,-1.6851748,-2.02053
2227,1663243319582,-1.3566917,-1.7315992,-2.0828364
2228,1663243319582,-1.399451,-1.7780236,-2.1378126
2229,1663243319582,-1.4434321,-1.8073443,-2.185459
2230,1663243319583,-1.4800829,-1.833,-2.2221096
2231,1663243319583,-1.5142903,-1.852547,-2.2477653
2232,1663243319588,-1.5448327,-1.8562121,-2.264869
2233,1663243319588,-1.5704883,-1.8476603,-2.2795293
2234,1663243319593,-1.5949222,-1.8268914,-2.2831943
2235,1663243319593,-1.6108042,-1.808566,-2.2758641
2236,1663243319598,-1.6254646,-1.7792454,-2.2697556
2237,1663243319598,-1.6364598,-1.7413728,-2.2563171
2238,1663243319603,-1.6401249,-1.7059437,-2.2392132
2239,1663243319603,-1.6560069,-1.6473024,-2.2196662
2240,1663243319608,-1.659672,-1.592326,-2.201341
2241,1663243319608,-1.6572286,-1.5202461,-2.184237
2242,1663243319612,-1.6608937,-1.4493878,-2.168355
2243,1663243319613,-1.6621153,-1.3797512,-2.1439211
2244,1663243319618,-1.6584504,-1.3150015,-2.1097138
2245,1663243319618,-1.6608937,-1.2429215,-2.0791714
2246,1663243319623,-1.6645588,-1.1671764,-2.0449638
2247,1663243319623,-1.6682239,-1.1097567,-2.0107565
2248,1663243319628,-1.6792191,-1.0498937,-1.9741056
2249,1663243319628,-1.687771,-1.0071344,-1.944785
2250,1663243319634,-1.7073181,-0.9631534,-1.9130208
2251,1663243319634,-1.7305303,-0.93138933,-1.8824786
2252,1663243319637,-1.7647377,-0.9155073,-1.860488
2253,1663243319638,-1.8026103,-0.9069555,-1.844606
2254,1663243319642,-1.8453696,-0.91306394,-1.8323891
2255,1663243319642,-1.895459,-0.9203941,-1.828724
2256,1663243319647,-1.9516569,-0.9399412,-1.8311673
