,timestamp,gyro_x,gyro_y,gyro_z
0,1663334758293,0.0056503373,-0.003436016,0.0023670332
1,1663334758293,0.00503949,-0.0022143214,0.0005344914
2,1663334758294,0.004428643,-0.0028251687,0.0029778804
3,1663334758294,0.0038177953,-0.0028251687,-0.00068720314
4,1663334758294,0.004428643,-0.0046577104,-7.635591e-05
5,1663334758294,0.003206948,-0.0052685575,0.0005344914
6,1663334758294,0.0038177953,-0.0071010995,0.0005344914
7,1663334758294,0.0038177953,-0.008322794,-7.635591e-05
8,1663334758294,0.0025961008,-0.008322794,-0.00068720314
9,1663334758298,0.003206948,-0.008322794,-7.635591e-05
10,1663334758299,0.0013744063,-0.008322794,0.0005344914
11,1663334758301,0.0013744063,-0.008322794,0.0005344914
12,1663334758305,0.00015271181,-0.008933641,-0.00068720314
13,1663334758307,-0.00045813544,-0.008933641,-0.00068720314
14,1663334758308,-0.00045813544,-0.0077119465,-7.635591e-05
15,1663334758311,-0.0029015245,-0.008322794,-0.0012980504
16,1663334758313,-0.0029015245,-0.0071010995,0.0005344914
17,1663334758316,-0.0035123718,-0.005879405,0.0005344914
18,1663334758318,-0.005955761,-0.004046863,-0.002519745
19,1663334758321,-0.0071774554,-0.003436016,-0.002519745
20,1663334758323,-0.0071774554,-0.001603474,-0.002519745
21,1663334758325,-0.0077883024,0.0020616094,-0.0031305922
22,1663334758327,-0.009620844,0.003283304,-0.0055739814
23,1663334758331,-0.010231691,0.00633754,-0.0055739814
24,1663334758333,-0.011453386,0.0075592347,-0.007406523
25,1663334758335,-0.011453386,0.010613471,-0.0086282175
26,1663334758337,-0.012064233,0.012446013,-0.0092390645
27,1663334758339,-0.011453386,0.016111096,-0.011071607
28,1663334758342,-0.0132859275,0.016111096,-0.012904149
29,1663334758345,-0.014507622,0.016721943,-0.014125843
30,1663334758346,-0.016340164,0.01733279,-0.014736691
31,1663334758348,-0.016951011,0.01733279,-0.017790927
32,1663334758351,-0.016951011,0.017943637,-0.019623468
33,1663334758354,-0.0193944,0.01733279,-0.019623468
34,1663334758356,-0.020616096,0.016721943,-0.022066858
35,1663334758358,-0.0193944,0.015500249,-0.023288552
36,1663334758359,-0.021226943,0.013667707,-0.025121093
37,1663334758364,-0.022448637,0.010613471,-0.025731942
38,1663334758364,-0.02183779,0.0075592347,-0.023899399
39,1663334758368,-0.024281178,0.00633754,-0.023899399
40,1663334758374,-0.024892027,0.003283304,-0.023288552
41,1663334758375,-0.024892027,0.0014507623,-0.022677705
42,1663334758375,-0.02367033,-0.001603474,-0.022066858
43,1663334758378,-0.02367033,-0.003436016,-0.019623468
44,1663334758379,-0.024281178,-0.005879405,-0.019623468
45,1663334758383,-0.02367033,-0.008322794,-0.016569233
46,1663334758384,-0.02367033,-0.009544488,-0.012904149
47,1663334758386,-0.023059484,-0.01137703,-0.0104607595
48,1663334758389,-0.02183779,-0.012598725,-0.0061848285
49,1663334758392,-0.020005248,-0.013209572,-0.0037414394
50,1663334758394,-0.021226943,-0.014431266,-0.00068720314
51,1663334758398,-0.021226943,-0.015042114,0.004810422
52,1663334758398,-0.018783553,-0.01565296,0.0066429637
53,1663334758401,-0.016340164,-0.015042114,0.010918895
54,1663334758403,-0.0151184695,-0.013820419,0.015805673
55,1663334758405,-0.0132859275,-0.013820419,0.01885991
56,1663334758409,-0.010842538,-0.013820419,0.020081604
57,1663334758410,-0.008399149,-0.013209572,0.024968382
58,1663334758412,-0.004123219,-0.013820419,0.028022617
59,1663334758414,-0.00167983,-0.013209572,0.028022617
60,1663334758416,0.0013744063,-0.013820419,0.030466007
61,1663334758419,0.0056503373,-0.015042114,0.03413109
62,1663334758422,0.008704574,-0.016263809,0.03413109
63,1663334758424,0.01175881,-0.016263809,0.035352785
64,1663334758427,0.014202199,-0.01809635,0.035352785
65,1663334758430,0.017867282,-0.01809635,0.035352785
66,1663334758432,0.021532366,-0.01809635,0.035352785
67,1663334758434,0.026419144,-0.019318044,0.03657448
68,1663334758437,0.027640838,-0.021150587,0.033520244
69,1663334758439,0.030695075,-0.021150587,0.033520244
70,1663334758440,0.03436016,-0.021150587,0.030466007
71,1663334758444,0.03863609,-0.020539738,0.031076854
72,1663334758447,0.039857782,-0.019318044,0.028022617
73,1663334758448,0.041690327,-0.018707197,0.026190076
74,1663334758450,0.04352287,-0.016874656,0.021914145
75,1663334758453,0.04535541,-0.016263809,0.020081604
76,1663334758455,0.045966256,-0.01565296,0.01641652
77,1663334758457,0.045966256,-0.014431266,0.012140589
78,1663334758460,0.047798797,-0.011987877,0.0096972
79,1663334758462,0.045966256,-0.01137703,0.007253811
80,1663334758465,0.046577103,-0.009544488,0.0041995747
81,1663334758466,0.044133715,-0.0071010995,0.0023670332
82,1663334758469,0.04352287,-0.0052685575,-0.0012980504
83,1663334758471,0.041690327,-0.001603474,-0.0031305922
84,1663334758474,0.03802524,0.0020616094,-0.004352287
85,1663334758476,0.035581853,0.0045049987,-0.0055739814
86,1663334758479,0.03130592,0.00633754,-0.0080173705
87,1663334758480,0.029473381,0.009391776,-0.0092390645
88,1663334758482,0.021532366,0.014278554,-0.0098499125
89,1663334758486,0.016034741,0.014889402,-0.013514996
90,1663334758489,0.011147963,0.016721943,-0.014736691
91,1663334758490,0.0056503373,0.018554486,-0.015958386
92,1663334758492,0.00015271181,0.019165333,-0.016569233
93,1663334758495,-0.0047340663,0.022219568,-0.018401774
94,1663334758497,-0.009620844,0.027106347,-0.018401774
95,1663334758499,-0.0151184695,0.030160584,-0.019623468
96,1663334758503,-0.020616096,0.03321482,-0.022066858
97,1663334758504,-0.02611372,0.03565821,-0.024510246
98,1663334758507,-0.029778805,0.0381016,-0.023899399
99,1663334758510,-0.033443887,0.040544987,-0.025731942
100,1663334758511,-0.037108973,0.04421007,-0.029397024
101,1663334758513,-0.040163208,0.045431767,-0.031229567
102,1663334758516,-0.043217443,0.046042614,-0.033672955
103,1663334758520,-0.045049984,0.048486,-0.03489465
104,1663334758522,-0.048104223,0.049707696,-0.03672719
105,1663334758523,-0.04871507,0.050318543,-0.037948888
106,1663334758526,-0.05054761,0.051540237,-0.040392276
107,1663334758530,-0.049936764,0.052151084,-0.042224817
108,1663334758530,-0.05054761,0.052151084,-0.04344651
109,1663334758533,-0.051158458,0.053983625,-0.045279052
110,1663334758537,-0.051158458,0.05276193,-0.0458899
111,1663334758538,-0.051158458,0.053372778,-0.047722444
112,1663334758540,-0.052380152,0.05276193,-0.05077668
113,1663334758542,-0.053601846,0.051540237,-0.05077668
114,1663334758544,-0.054212693,0.051540237,-0.051998373
115,1663334758548,-0.053601846,0.050318543,-0.053220067
116,1663334758549,-0.056045234,0.047264308,-0.053830914
117,1663334758552,-0.056045234,0.04665346,-0.053830914
118,1663334758556,-0.05971032,0.045431767,-0.057496
119,1663334758556,-0.062764555,0.044820916,-0.058106847
120,1663334758559,-0.06704049,0.045431767,-0.05993939
121,1663334758562,-0.07314896,0.047875155,-0.063604474
122,1663334758564,-0.08047912,0.04909685,-0.067269556
123,1663334758566,-0.08414421,0.049707696,-0.069712944
124,1663334758569,-0.09086353,0.04909685,-0.067269556
125,1663334758572,-0.096972,0.047875155,-0.06543701
126,1663334758574,-0.10430217,0.044820916,-0.06299362
127,1663334758576,-0.109799795,0.042988375,-0.05993939
128,1663334758578,-0.11529742,0.040544987,-0.05932854
129,1663334758580,-0.12079505,0.039323293,-0.05932854
130,1663334758583,-0.12507097,0.040544987,-0.06299362
131,1663334758586,-0.1293469,0.041155834,-0.06177193
132,1663334758588,-0.13362284,0.041155834,-0.06299362
133,1663334758589,-0.13423368,0.042377528,-0.06482617
134,1663334758593,-0.13545538,0.042377528,-0.06482617
135,1663334758595,-0.13423368,0.040544987,-0.06604786
136,1663334758597,-0.1317903,0.038712446,-0.069712944
137,1663334758599,-0.1293469,0.03749075,-0.06849125
138,1663334758601,-0.12629268,0.03749075,-0.07032379
139,1663334758605,-0.12323844,0.040544987,-0.07398888
140,1663334758605,-0.11957335,0.04421007,-0.07887565
141,1663334758609,-0.116519116,0.048486,-0.08315159
142,1663334758610,-0.11407573,0.051540237,-0.08926006
143,1663334758614,-0.11163234,0.055205323,-0.09353599
144,1663334758615,-0.11224318,0.058870405,-0.097811915
145,1663334758618,-0.11163234,0.06253549,-0.104531236
146,1663334758620,-0.11163234,0.06681142,-0.10636378
147,1663334758623,-0.11102149,0.07108735,-0.10636378
148,1663334758624,-0.11285403,0.07597413,-0.110639706
149,1663334758627,-0.11163234,0.080860905,-0.110639706
150,1663334758630,-0.110410646,0.08819107,-0.11002886
151,1663334758631,-0.10796725,0.0936887,-0.10880717
152,1663334758636,-0.10552386,0.10162971,-0.106974624
153,1663334758638,-0.10246963,0.10895988,-0.10330954
154,1663334758642,-0.0981937,0.11506835,-0.101477005
155,1663334758642,-0.093917765,0.12239852,-0.09964446
156,1663334758643,-0.08903099,0.12850699,-0.09414683
157,1663334758646,-0.08292252,0.13339376,-0.091092594
158,1663334758648,-0.07742489,0.13828056,-0.08926006
159,1663334758651,-0.07070557,0.14011309,-0.08498412
160,1663334758654,-0.062764555,0.13950224,-0.08009735
161,1663334758656,-0.057266932,0.1388914,-0.07398888
162,1663334758658,-0.052991,0.13583715,-0.06910209
163,1663334758661,-0.04566083,0.13156123,-0.05993939
164,1663334758662,-0.040163208,0.12545276,-0.051387526
165,1663334758665,-0.036498122,0.11629005,-0.042835664
166,1663334758667,-0.029167956,0.10651649,-0.035505496
167,1663334758670,-0.027946262,0.09491039,-0.025731942
168,1663334758673,-0.024281178,0.08452599,-0.014736691
169,1663334758675,-0.022448637,0.07780667,-0.007406523
170,1663334758679,-0.02183779,0.07597413,0.0005344914
171,1663334758679,-0.020616096,0.074141584,0.008475506
172,1663334758682,-0.024281178,0.06925481,0.012751437
173,1663334758685,-0.026724568,0.06436803,0.020081604
174,1663334758688,-0.030389652,0.056427017,0.028022617
175,1663334758689,-0.03771982,0.047264308,0.032909397
176,1663334758691,-0.040163208,0.03749075,0.039628714
177,1663334758694,-0.04382829,0.02893889,0.04512634
178,1663334758695,-0.047493376,0.021608721,0.04940227
179,1663334758698,-0.049325917,0.015500249,0.05245651
180,1663334758701,-0.049936764,0.010002624,0.053678203
181,1663334758703,-0.052991,0.005726693,0.05062397
182,1663334758705,-0.053601846,0.003283304,0.04940227
183,1663334758708,-0.051769305,-0.00038177954,0.046348035
184,1663334758711,-0.049936764,-0.003436016,0.040850412
185,1663334758714,-0.04871507,-0.0071010995,0.035352785
186,1663334758717,-0.04566083,-0.008933641,0.030466007
187,1663334758717,-0.043217443,-0.008322794,0.022524992
188,1663334758721,-0.038941514,-0.0077119465,0.017027367
189,1663334758722,-0.03466558,-0.005879405,0.011529742
190,1663334758724,-0.029778805,-0.0028251687,0.0066429637
191,1663334758727,-0.026724568,0.000839915,0.0011453386
192,1663334758729,-0.022448637,0.0051158457,-0.0012980504
193,1663334758732,-0.018783553,0.009391776,-0.0031305922
194,1663334758735,-0.01267508,0.013667707,-0.004352287
195,1663334758736,-0.0071774554,0.01733279,-0.004963134
196,1663334758740,-0.0029015245,0.020997874,-0.004352287
197,1663334758741,0.0013744063,0.024662958,-0.004963134
198,1663334758744,0.007482879,0.0264955,-0.004352287
199,1663334758745,0.012980504,0.028328042,-0.002519745
200,1663334758747,0.017256435,0.029549737,-0.00068720314
201,1663334758750,0.022143213,0.031993125,0.0017561859
202,1663334758753,0.027640838,0.031382278,0.0041995747
203,1663334758755,0.03130592,0.033825666,0.0041995747
204,1663334758757,0.034971006,0.034436513,0.0060321167
205,1663334758760,0.041079476,0.036269058,0.004810422
206,1663334758762,0.04352287,0.036879905,0.0060321167
207,1663334758764,0.04535541,0.039323293,0.004810422
208,1663334758768,0.048409645,0.040544987,0.0060321167
209,1663334758769,0.04963134,0.042377528,0.005421269
210,1663334758773,0.04902049,0.04359922,0.0023670332
211,1663334758792,0.04963134,0.046042614,-7.635591e-05
212,1663334758792,0.04902049,0.048486,-0.004352287
213,1663334758792,0.04718795,0.05092939,-0.006795676
214,1663334758792,0.04535541,0.052151084,-0.011071607
215,1663334758792,0.04352287,0.053372778,-0.015347538
216,1663334758792,0.03802524,0.055205323,-0.020845164
217,1663334758792,0.033749312,0.056427017,-0.026342789
218,1663334758793,0.030084228,0.058259558,-0.028786177
219,1663334758795,0.02519745,0.0600921,-0.034283802
220,1663334758797,0.022143213,0.0600921,-0.03917058
221,1663334758800,0.016034741,0.06253549,-0.042835664
222,1663334758804,0.009926268,0.061313793,-0.047111593
223,1663334758804,0.00503949,0.0600921,-0.051387526
224,1663334758808,-0.00045813544,0.058259558,-0.05444176
225,1663334758810,-0.005955761,0.057037864,-0.057496
226,1663334758810,-0.01267508,0.056427017,-0.060550235
227,1663334758813,-0.017561859,0.055205323,-0.061161082
228,1663334758817,-0.024281178,0.053983625,-0.06421532
229,1663334758819,-0.030389652,0.053372778,-0.067269556
230,1663334758822,-0.037108973,0.05092939,-0.067269556
231,1663334758823,-0.0413849,0.051540237,-0.069712944
232,1663334758826,-0.04688253,0.05092939,-0.069712944
233,1663334758828,-0.051769305,0.05092939,-0.07032379
234,1663334758831,-0.056656085,0.052151084,-0.07032379
235,1663334758834,-0.059099473,0.052151084,-0.06910209
236,1663334758835,-0.06154286,0.05276193,-0.07093464
237,1663334758837,-0.06520794,0.05092939,-0.07276718
238,1663334758841,-0.06704049,0.051540237,-0.069712944
239,1663334758842,-0.071927264,0.050318543,-0.069712944
240,1663334758845,-0.07437065,0.050318543,-0.0678804
241,1663334758847,-0.07681404,0.049707696,-0.066658705
242,1663334758850,-0.07742489,0.048486,-0.063604474
243,1663334758852,-0.07986828,0.045431767,-0.06299362
244,1663334758856,-0.08231167,0.04421007,-0.05993939
245,1663334758856,-0.08414421,0.041155834,-0.05688515
246,1663334758859,-0.0865876,0.038712446,-0.05505261
247,1663334758861,-0.08597675,0.03565821,-0.05077668
248,1663334758863,-0.0865876,0.031993125,-0.0458899
249,1663334758866,-0.0865876,0.028328042,-0.042224817
250,1663334758869,-0.08414421,0.024662958,-0.03672719
251,1663334758872,-0.08536591,0.020997874,-0.035505496
252,1663334758873,-0.081700824,0.016111096,-0.03061872
253,1663334758876,-0.07925743,0.013667707,-0.028786177
254,1663334758878,-0.07559235,0.012446013,-0.024510246
255,1663334758880,-0.07375981,0.011835165,-0.022677705
256,1663334758882,-0.06826218,0.010613471,-0.02145601
257,1663334758885,-0.06398625,0.009391776,-0.020845164
258,1663334758887,-0.05971032,0.010002624,-0.018401774
259,1663334758889,-0.056656085,0.010002624,-0.018401774
260,1663334758893,-0.05482354,0.012446013,-0.017790927
261,1663334758894,-0.051158458,0.014889402,-0.015347538
262,1663334758897,-0.04871507,0.018554486,-0.014125843
263,1663334758899,-0.04871507,0.020997874,-0.015347538
264,1663334758901,-0.04566083,0.023441264,-0.0092390645
265,1663334758905,-0.045049984,0.024052111,-0.0061848285
266,1663334758906,-0.045049984,0.023441264,-0.0019088977
267,1663334758909,-0.045049984,0.020997874,0.0066429637
268,1663334758911,-0.047493376,0.01733279,0.011529742
269,1663334758912,-0.046271678,0.01305686,0.01641652
270,1663334758915,-0.04566083,0.008780929,0.023746688
271,1663334758918,-0.04566083,0.0051158457,0.031687703
272,1663334758920,-0.046271678,0.00022906772,0.037185326
273,1663334758923,-0.046271678,-0.0052685575,0.042682953
274,1663334758925,-0.04688253,-0.009544488,0.046958882
275,1663334758927,-0.04566083,-0.014431266,0.051845662
276,1663334758929,-0.043217443,-0.018707197,0.054899897
277,1663334758932,-0.04382829,-0.022983128,0.059175827
278,1663334758935,-0.040163208,-0.026648212,0.062230065
279,1663334758937,-0.040774055,-0.030313294,0.06711684
280,1663334758939,-0.038330667,-0.032756682,0.06956023
281,1663334758942,-0.035276428,-0.03581092,0.07261447
282,1663334758945,-0.034054734,-0.037643462,0.07383616
283,1663334758946,-0.031611346,-0.04008685,0.07505786
284,1663334758949,-0.027335415,-0.041308545,0.077501245
285,1663334758952,-0.02611372,-0.04314109,0.07994463
286,1663334758954,-0.02183779,-0.04497363,0.08116633
287,1663334758955,-0.020005248,-0.046195325,0.08299887
288,1663334758959,-0.013896775,-0.04680617,0.08605311
289,1663334758959,-0.010842538,-0.04741702,0.08910734
290,1663334758963,-0.005955761,-0.049860407,0.0884965
291,1663334758966,-0.00167983,-0.050471254,0.08910734
292,1663334758969,0.003206948,-0.051692948,0.090329036
293,1663334758970,0.006872032,-0.052914646,0.09093989
294,1663334758972,0.012369657,-0.053525493,0.09093989
295,1663334758974,0.017256435,-0.055358034,0.09093989
296,1663334758977,0.02519745,-0.055358034,0.092772424
297,1663334758979,0.028862532,-0.05780142,0.092772424
298,1663334758982,0.033749312,-0.059023116,0.093383275
299,1663334758984,0.039857782,-0.059023116,0.090329036
300,1663334758987,0.044744562,-0.059633963,0.08910734
301,1663334758990,0.050853033,-0.060855657,0.08788565
302,1663334758991,0.05451812,-0.060855657,0.087274805
303,1663334758994,0.06001574,-0.060855657,0.084220566
304,1663334758995,0.065513365,-0.06024481,0.08238802
305,1663334758999,0.0697893,-0.06024481,0.08177718
306,1663334759001,0.074676074,-0.059023116,0.078112096
307,1663334759003,0.08078455,-0.059023116,0.07383616
308,1663334759006,0.08750387,-0.059023116,0.07322531
309,1663334759007,0.08994726,-0.057190575,0.07261447
310,1663334759011,0.09300149,-0.05841227,0.06772769
311,1663334759012,0.09605573,-0.059633963,0.06467345
312,1663334759016,0.10094251,-0.06024481,0.062230065
313,1663334759017,0.10155336,-0.061466504,0.05856498
314,1663334759019,0.103385895,-0.060855657,0.05612159
315,1663334759022,0.107050985,-0.059633963,0.054899897
316,1663334759025,0.10827268,-0.06024481,0.050013117
317,1663334759028,0.10827268,-0.06024481,0.048791423
318,1663334759030,0.10827268,-0.05841227,0.04573719
319,1663334759032,0.10888352,-0.05780142,0.042682953
320,1663334759034,0.107050985,-0.057190575,0.03840702
321,1663334759037,0.10521844,-0.055358034,0.03413109
322,1663334759039,0.103996746,-0.054747187,0.03229855
323,1663334759041,0.1021642,-0.052914646,0.025579229
324,1663334759042,0.09910997,-0.04924956,0.021914145
325,1663334759046,0.09300149,-0.046195325,0.017027367
326,1663334759049,0.08689302,-0.04314109,0.013362284
327,1663334759050,0.082006246,-0.040697698,0.009086353
328,1663334759054,0.07650862,-0.037643462,0.005421269
329,1663334759056,0.069178455,-0.033367533,0.0017561859
330,1663334759058,0.06368083,-0.030313294,-0.0031305922
331,1663334759058,0.0581832,-0.026648212,-0.004963134
332,1663334759061,0.05207473,-0.023593975,-0.006795676
333,1663334759064,0.04352287,-0.021150587,-0.0098499125
334,1663334759067,0.036803547,-0.017485503,-0.014125843
335,1663334759070,0.030695075,-0.014431266,-0.01901262
336,1663334759072,0.025808297,-0.013209572,-0.020234315
337,1663334759075,0.020921519,-0.01137703,-0.024510246
338,1663334759075,0.016645588,-0.008322794,-0.028786177
339,1663334759079,0.011147963,-0.0071010995,-0.033062108
340,1663334759082,0.006872032,-0.0071010995,-0.034283802
341,1663334759084,0.004428643,-0.005879405,-0.037948888
342,1663334759086,-0.00045813544,-0.0052685575,-0.04344651
343,1663334759088,-0.0029015245,-0.0046577104,-0.044668205
344,1663334759091,-0.006566608,-0.004046863,-0.047111593
345,1663334759094,-0.0071774554,-0.004046863,-0.048944138
346,1663334759094,-0.011453386,-0.004046863,-0.051387526
347,1663334759098,-0.010842538,-0.004046863,-0.053220067
348,1663334759100,-0.014507622,-0.003436016,-0.058106847
349,1663334759103,-0.015729317,0.0014507623,-0.05932854
350,1663334759105,-0.018783553,0.008780929,-0.062382776
351,1663334759107,-0.020005248,0.014278554,-0.06543701
352,1663334759109,-0.023059484,0.019165333,-0.067269556
353,1663334759111,-0.024892027,0.020997874,-0.06604786
354,1663334759115,-0.027335415,0.020387027,-0.06543701
355,1663334759116,-0.030389652,0.01733279,-0.06421532
356,1663334759119,-0.03283304,0.014889402,-0.06177193
357,1663334759122,-0.033443887,0.008780929,-0.058106847
358,1663334759123,-0.031611346,0.005726693,-0.053220067
359,1663334759125,-0.031611346,0.0020616094,-0.05077668
360,1663334759127,-0.031611346,-0.001603474,-0.04833329
361,1663334759131,-0.029778805,-0.003436016,-0.047111593
362,1663334759133,-0.027946262,-0.006490252,-0.045279052
363,1663334759135,-0.024892027,-0.01137703,-0.044057358
364,1663334759137,-0.018783553,-0.01565296,-0.03917058
365,1663334759140,-0.014507622,-0.021150587,-0.03672719
366,1663334759143,-0.009620844,-0.026648212,-0.03489465
367,1663334759144,-0.0035123718,-0.030924143,-0.031229567
368,1663334759148,0.0013744063,-0.035200074,-0.026953636
369,1663334759150,0.0056503373,-0.037643462,-0.024510246
370,1663334759152,0.013591352,-0.03825431,-0.020234315
371,1663334759155,0.017256435,-0.038865156,-0.01901262
372,1663334759157,0.02275406,-0.037643462,-0.015958386
373,1663334759159,0.027029991,-0.037643462,-0.011071607
374,1663334759160,0.03191677,-0.037643462,-0.0061848285
375,1663334759165,0.0361927,-0.04008685,-0.0012980504
376,1663334759167,0.03802524,-0.043751936,0.005421269
377,1663334759169,0.04046863,-0.048027866,0.010918895
378,1663334759170,0.041690327,-0.052914646,0.014583978
379,1663334759174,0.04291202,-0.05780142,0.021914145
380,1663334759174,0.044133715,-0.0626882,0.02741177
381,1663334759178,0.04535541,-0.06818583,0.033520244
382,1663334759179,0.047798797,-0.072461754,0.039017867
383,1663334759182,0.04718795,-0.07857023,0.042072106
384,1663334759185,0.048409645,-0.082235314,0.04756973
385,1663334759188,0.04902049,-0.08651124,0.051845662
386,1663334759191,0.04963134,-0.08956548,0.05612159
387,1663334759191,0.05451812,-0.09139802,0.059175827
388,1663334759195,0.056961507,-0.094452254,0.06100837
389,1663334759197,0.061848287,-0.09384141,0.065284304
390,1663334759199,0.06734591,-0.09323056,0.06711684
391,1663334759201,0.075286925,-0.09139802,0.070781924
392,1663334759205,0.08078455,-0.08406785,0.071392775
393,1663334759207,0.08750387,-0.0742943,0.06956023
394,1663334759207,0.097277425,-0.063909896,0.066506
395,1663334759210,0.107050985,-0.057190575,0.0640626
396,1663334759213,0.11560284,-0.053525493,0.06161922
397,1663334759216,0.12598725,-0.052303795,0.057954133
398,1663334759218,0.13637166,-0.053525493,0.053067356
399,1663334759220,0.14553437,-0.054747187,0.050013117
400,1663334759223,0.15836215,-0.056579728,0.046958882
401,1663334759225,0.1693574,-0.05841227,0.042072106
402,1663334759227,0.17913096,-0.0626882,0.039628714
403,1663334759229,0.19501299,-0.07062922,0.039628714
404,1663334759232,0.2133384,-0.07734854,0.042072106
405,1663334759235,0.22922044,-0.08101362,0.042682953
406,1663334759237,0.24265908,-0.0846787,0.0432938
407,1663334759239,0.25426516,-0.08651124,0.046348035
408,1663334759241,0.26342788,-0.088343784,0.051234815
409,1663334759243,0.2713689,-0.09689565,0.05673244
410,1663334759247,0.2793099,-0.10728005,0.060397524
411,1663334759249,0.28602922,-0.11766446,0.06284091
412,1663334759251,0.28847262,-0.12621632,0.06589515
413,1663334759253,0.290916,-0.13232478,0.06711684
414,1663334759256,0.29152685,-0.1390441,0.071392775
415,1663334759257,0.29397026,-0.14698513,0.07383616
416,1663334759260,0.29763532,-0.14759597,0.07994463
417,1663334759263,0.29885703,-0.14820682,0.084220566
418,1663334759265,0.30007872,-0.14637427,0.08483142
419,1663334759268,0.29946786,-0.14454173,0.0884965
420,1663334759271,0.29946786,-0.1427092,0.09399412
421,1663334759774,-0.035887275,-0.03581092,0.013973131
422,1663334759794,-0.03283304,-0.03581092,0.018249061
423,1663334759794,-0.029167956,-0.03642177,0.020081604
424,1663334759794,-0.024892027,-0.037643462,0.02069245
425,1663334759794,-0.020616096,-0.04008685,0.021914145
426,1663334759794,-0.013896775,-0.041308545,0.023746688
427,1663334759794,-0.0077883024,-0.043751936,0.026190076
428,1663334759794,-0.0022906773,-0.04497363,0.028633466
429,1663334759794,0.004428643,-0.048638713,0.03229855
430,1663334759795,0.009315421,-0.049860407,0.034741938
431,1663334759797,0.014202199,-0.055358034,0.035352785
432,1663334759799,0.018478129,-0.06024481,0.039017867
433,1663334759802,0.023975754,-0.06757498,0.0432938
434,1663334759804,0.026419144,-0.07490514,0.043904647
435,1663334759806,0.03191677,-0.07857023,0.046958882
436,1663334759809,0.036803547,-0.08101362,0.04940227
437,1663334759812,0.039857782,-0.08345701,0.054899897
438,1663334759814,0.042301174,-0.08345701,0.057954133
439,1663334759816,0.045966256,-0.085289545,0.06284091
440,1663334759818,0.048409645,-0.09200887,0.06711684
441,1663334759821,0.04902049,-0.10483666,0.07322531
442,1663334759823,0.04535541,-0.12255123,0.07872294
443,1663334759825,0.04535541,-0.1414875,0.086663954
444,1663334759828,0.041079476,-0.1622563,0.096437514
445,1663334759830,0.039857782,-0.17936003,0.106211066
446,1663334759834,0.041079476,-0.19157697,0.11720632
447,1663334759834,0.04046863,-0.20318307,0.12514733
448,1663334759838,0.04352287,-0.21662171,0.13431004
449,1663334759840,0.047798797,-0.23006035,0.14347275
450,1663334759841,0.06001574,-0.24166645,0.15385716
451,1663334759845,0.07284354,-0.25510508,0.15996562
452,1663334759846,0.08750387,-0.2642678,0.16424155
453,1663334759847,0.10949437,-0.26732203,0.1660741
454,1663334759851,0.13026318,-0.2654895,0.16668494
455,1663334759855,0.15408622,-0.26304612,0.16912833
456,1663334759855,0.1809635,-0.2606027,0.17096087
457,1663334759859,0.21028417,-0.25693762,0.17401512
458,1663334759861,0.23838314,-0.24899662,0.17218257
459,1663334759864,0.26526043,-0.23800136,0.16851749
460,1663334759866,0.29274854,-0.22883865,0.16546325
461,1663334759868,0.3165716,-0.22150849,0.15935478
462,1663334759869,0.33795124,-0.21540001,0.15263546
463,1663334759872,0.35627666,-0.21112408,0.14102936
464,1663334759876,0.37460208,-0.20990239,0.1349209
465,1663334759876,0.3892624,-0.21173494,0.12331479
466,1663334759881,0.39781427,-0.21295662,0.11170869
467,1663334759881,0.40514445,-0.21356747,0.100102596
468,1663334759885,0.40758783,-0.21234578,0.08788565
469,1663334759885,0.40636614,-0.20990239,0.07505786
470,1663334759891,0.4033119,-0.20562646,0.060397524
471,1663334759891,0.39842513,-0.19890714,0.04756973
472,1663334759894,0.38987327,-0.18974443,0.030466007
473,1663334759897,0.37704548,-0.17874917,0.015194826
474,1663334759898,0.36116344,-0.17264071,0.0005344914
475,1663334759900,0.34039465,-0.16592139,-0.016569233
476,1663334759903,0.31779328,-0.15370443,-0.031840414
477,1663334759905,0.29641363,-0.13782242,-0.046500746
478,1663334759909,0.27564484,-0.117053606,-0.060550235
479,1663334759910,0.25487602,-0.09139802,-0.07215633
480,1663334759912,0.2365506,-0.0626882,-0.08070819
481,1663334759915,0.22005773,-0.034589227,-0.0898709
482,1663334759917,0.2041757,-0.001603474,-0.1002553
483,1663334759919,0.18951537,0.036879905,-0.10514209
484,1663334759921,0.17241164,0.07597413,-0.10941801
485,1663334759924,0.15591876,0.1144575,-0.10941801
486,1663334759927,0.13942589,0.1468324,-0.110639706
487,1663334759930,0.12781979,0.17798562,-0.106974624
488,1663334759932,0.11865708,0.21219307,-0.09964446
489,1663334759934,0.11010522,0.24578966,-0.09414683
490,1663334759937,0.10521844,0.27816457,-0.08803836
491,1663334759937,0.10094251,0.30748525,-0.08070819
492,1663334759942,0.100331664,0.33619505,-0.07398888
493,1663334759944,0.103385895,0.36307234,-0.06299362
494,1663334759946,0.10766183,0.3832303,-0.05260922
495,1663334759948,0.113159455,0.4027774,-0.044057358
496,1663334759950,0.12354386,0.41865945,-0.031840414
497,1663334759953,0.13392825,0.43026555,-0.022066858
498,1663334759954,0.14614521,0.43942824,-0.013514996
499,1663334759957,0.15836215,0.4437042,-0.0037414394
500,1663334759959,0.17302248,0.44553673,0.0035887277
501,1663334759961,0.18707198,0.44248247,0.012140589
502,1663334759965,0.20112146,0.4375957,0.017027367
503,1663334759967,0.21639264,0.42904383,0.023135839
504,1663334759968,0.23044212,0.41865945,0.029244313
505,1663334759971,0.24876754,0.4052208,0.03657448
506,1663334759974,0.26403874,0.38872793,0.04023956
507,1663334759976,0.28053162,0.37345675,0.048180576
508,1663334759978,0.29580277,0.3575747,0.053067356
509,1663334759981,0.31107396,0.33741677,0.057954133
510,1663334759984,0.32390177,0.3184805,0.060397524
511,1663334759985,0.33734038,0.29954422,0.0640626
512,1663334759988,0.34894648,0.2799971,0.06772769
513,1663334759991,0.3593309,0.25983915,0.07200362
514,1663334759993,0.36849362,0.23907034,0.074447006
515,1663334759995,0.37521294,0.21952324,0.07505786
516,1663334759997,0.38193226,0.20119782,0.077501245
517,1663334760000,0.38559732,0.18470494,0.078112096
518,1663334760006,0.38987327,0.16821207,0.07994463
519,1663334760006,0.39414918,0.15355173,0.08238802
520,1663334760008,0.39353836,0.14072394,0.08299887
521,1663334760010,0.39048412,0.12972869,0.08238802
522,1663334760012,0.38620818,0.118733436,0.08116633
523,1663334760014,0.3813214,0.10957073,0.083609715
524,1663334760017,0.3733804,0.10162971,0.083609715
525,1663334760019,0.3660502,0.09491039,0.083609715
526,1663334760020,0.35444412,0.08758023,0.08299887
527,1663334760024,0.34344888,0.08330429,0.08299887
528,1663334760027,0.3306211,0.07963921,0.08116633
529,1663334760028,0.31718245,0.07719582,0.08177718
530,1663334760030,0.30313295,0.07780667,0.08177718
531,1663334760034,0.28725094,0.07902836,0.07994463
532,1663334760035,0.27197975,0.08025006,0.07872294
533,1663334760038,0.2560977,0.08269345,0.07933379
534,1663334760040,0.23899399,0.08574768,0.077501245
535,1663334760043,0.22066857,0.08880192,0.07566871
536,1663334760045,0.20295401,0.09429955,0.074447006
537,1663334760047,0.18585028,0.09735378,0.074447006
538,1663334760054,0.16752486,0.10224056,0.07383616
539,1663334760054,0.14919944,0.105294794,0.07383616
540,1663334760054,0.13270657,0.10712734,0.07322531
541,1663334760057,0.11438115,0.10834903,0.074447006
542,1663334760060,0.097277425,0.11018158,0.07383616
543,1663334760061,0.07834116,0.10712734,0.07322531
544,1663334760064,0.06123744,0.099797174,0.074447006
545,1663334760066,0.04963134,0.09307785,0.078112096
546,1663334760068,0.034971006,0.086969376,0.08055548
547,1663334760069,0.020921519,0.07841752,0.08238802
548,1663334760072,0.008093726,0.06681142,0.084220566
549,1663334760075,-0.0053449133,0.052151084,0.08605311
550,1663334760078,-0.018172706,0.034436513,0.08971819
551,1663334760081,-0.030389652,0.014889402,0.08971819
552,1663334760082,-0.04199575,-0.0028251687,0.09216158
553,1663334760085,-0.052380152,-0.024204822,0.09460497
554,1663334760086,-0.06520794,-0.046195325,0.09521582
555,1663334760089,-0.07742489,-0.06879667,0.096437514
556,1663334760092,-0.087809294,-0.09200887,0.09582666
557,1663334760094,-0.09880454,-0.11583191,0.093383275
558,1663334760097,-0.10796725,-0.13843326,0.09399412
559,1663334760100,-0.116519116,-0.15736952,0.096437514
560,1663334760101,-0.122627586,-0.17447324,0.09704836
561,1663334760105,-0.1293469,-0.18974443,0.09827005
562,1663334760106,-0.13484453,-0.20318307,0.100102596
563,1663334760109,-0.13667707,-0.21295662,0.10193513
564,1663334760111,-0.13912046,-0.22211933,0.10376768
565,1663334760113,-0.13973132,-0.22822781,0.10560022
566,1663334760115,-0.13912046,-0.23250374,0.10682192
567,1663334760117,-0.13912046,-0.23739052,0.108654454
568,1663334760120,-0.13667707,-0.2386122,0.11109784
569,1663334760123,-0.133012,-0.23922306,0.11170869
570,1663334760125,-0.133012,-0.2386122,0.11170869
571,1663334760127,-0.13117945,-0.23800136,0.11476293
572,1663334760130,-0.1293469,-0.23616882,0.11720632
573,1663334760132,-0.12629268,-0.23250374,0.11659547
574,1663334760136,-0.12507097,-0.22639526,0.12026055
575,1663334760136,-0.12384928,-0.22089764,0.12331479
576,1663334760139,-0.12323844,-0.21417832,0.12697987
577,1663334760143,-0.122627586,-0.20806985,0.12820157
578,1663334760144,-0.12446013,-0.19951798,0.1300341
579,1663334760147,-0.12323844,-0.19157697,0.13247749
580,1663334760149,-0.12629268,-0.18180342,0.13308835
581,1663334760151,-0.13056861,-0.17141901,0.1349209
582,1663334760153,-0.1317903,-0.16042376,0.13736428
583,1663334760156,-0.13606623,-0.14942852,0.13614258
584,1663334760159,-0.13912046,-0.13782242,0.13919681
585,1663334760160,-0.14278555,-0.12560546,0.13858597
586,1663334760163,-0.14706148,-0.11216683,0.13980767
587,1663334760166,-0.15011571,-0.09933904,0.14041851
588,1663334760168,-0.15683503,-0.08406785,0.14225106
589,1663334760169,-0.16111097,-0.06696413,0.14102936
590,1663334760173,-0.16844113,-0.044362783,0.13797513
591,1663334760175,-0.1757713,-0.015042114,0.1336992
592,1663334760177,-0.18432316,0.020387027,0.12881242
593,1663334760179,-0.19531842,0.06253549,0.12270394
594,1663334760181,-0.20997874,0.11323581,0.11293039
595,1663334760183,-0.22524993,0.1712663,0.10376768
596,1663334760187,-0.24662958,0.23784865,0.09216158
597,1663334760190,-0.27106348,0.30870694,0.07994463
598,1663334760191,-0.30038413,0.38384116,0.06711684
599,1663334760193,-0.33398074,0.46141875,0.055510744
600,1663334760196,-0.37124243,0.5377747,0.043904647
601,1663334760199,-0.41033664,0.6135197,0.031687703
602,1663334760200,-0.45187426,0.6898756,0.02069245
603,1663334760202,-0.49463356,0.76378816,0.010918895
604,1663334760205,-0.536782,0.8389224,0.0011453386
605,1663334760208,-0.58076304,0.90611553,-0.007406523
606,1663334760210,-0.61863554,0.96658945,-0.012904149
607,1663334760213,-0.6534538,1.0209548,-0.017790927
608,1663334760215,-0.69010466,1.0637141,-0.02145601
609,1663334760217,-0.7224796,1.0979216,-0.027564483
610,1663334760219,-0.74874604,1.1199121,-0.03245126
611,1663334760222,-0.77195823,1.1296856,-0.03917058
612,1663334760224,-0.7884511,1.1309073,-0.04833329
613,1663334760227,-0.8000572,1.1217446,-0.05932854
614,1663334760230,-0.804944,1.1021975,-0.07032379
615,1663334760231,-0.80372226,1.0753202,-0.0794865
616,1663334760233,-0.7976138,1.0417236,-0.091703445
617,1663334760235,-0.7872294,1.0026294,-0.10636378
618,1663334760238,-0.77256906,0.95803756,-0.122856654
619,1663334760241,-0.7542437,0.90855896,-0.13934954
620,1663334760243,-0.73469657,0.85297185,-0.1570641
621,1663334760245,-0.71331686,0.7967739,-0.17477867
622,1663334760248,-0.6913264,0.73813254,-0.19310409
623,1663334760250,-0.6650599,0.6788804,-0.21204035
624,1663334760252,-0.636961,0.61901736,-0.22853324
625,1663334760255,-0.6106945,0.5658736,-0.24441525
626,1663334760257,-0.58381724,0.5176167,-0.25724304
627,1663334760259,-0.5587725,0.4675272,-0.27007085
628,1663334760262,-0.5318953,0.4168269,-0.28534204
629,1663334760265,-0.50318545,0.36612657,-0.2993915
630,1663334760266,-0.48058408,0.3184805,-0.3122193
631,1663334760269,-0.45553935,0.27694288,-0.32199287
632,1663334760272,-0.43354884,0.23662695,-0.3287122
633,1663334762288,1.0789089,0.60985464,-0.07398888
634,1663334762288,1.0978452,0.58786416,-0.069712944
635,1663334762288,1.1131164,0.5628194,-0.067269556
636,1663334762288,1.1302202,0.5334987,-0.06299362
637,1663334762288,1.1425134,0.49990213,-0.05688515
638,1663334762290,1.1510653,0.46508384,-0.050165832
639,1663334762290,1.1596172,0.4259896,-0.044057358
640,1663334762293,1.1651148,0.38750622,-0.03672719
641,1663334762296,1.1687799,0.34657946,-0.026953636
642,1663334762299,1.1687799,0.30748525,-0.016569233
643,1663334762300,1.1657256,0.26778015,-0.0037414394
644,1663334762302,1.1590064,0.22868595,0.0060321167
645,1663334762305,1.1498436,0.19203511,0.020081604
646,1663334762307,1.1370158,0.15782766,0.033520244
647,1663334762310,1.1167815,0.12239852,0.043904647
648,1663334762313,1.0996778,0.08635853,0.055510744
649,1663334762315,1.0764656,0.04909685,0.06161922
650,1663334762316,1.0465341,0.011835165,0.068338536
651,1663334762318,1.0184351,-0.0290916,0.074447006
652,1663334762321,0.98667103,-0.06879667,0.07933379
653,1663334762323,0.9500202,-0.10972344,0.08299887
654,1663334762326,0.9127585,-0.14881766,0.083609715
655,1663334762331,0.8718318,-0.18913358,0.083609715
656,1663334762331,0.8290724,-0.22456272,0.08544226
657,1663334762334,0.7832589,-0.25938103,0.083609715
658,1663334762335,0.73316944,-0.28870168,0.083609715
659,1663334762338,0.6800257,-0.31374642,0.08177718
660,1663334762340,0.62382776,-0.33451524,0.08055548
661,1663334762343,0.562743,-0.35467318,0.07994463
662,1663334762346,0.49921492,-0.37238777,0.07933379
663,1663334762348,0.43324342,-0.3870481,0.07933379
664,1663334762349,0.36299598,-0.39804333,0.07872294
665,1663334762353,0.2933594,-0.40354097,0.083609715
666,1663334762355,0.22005773,-0.40415183,0.08910734
667,1663334762356,0.14492351,-0.4010976,0.09765921
668,1663334762359,0.072232686,-0.39254573,0.11109784
669,1663334762363,-0.0010689828,-0.3791071,0.12636903
670,1663334762365,-0.07437065,-0.36322504,0.14347275
671,1663334762366,-0.14706148,-0.34673217,0.16424155
672,1663334762369,-0.21547636,-0.32779592,0.1868429
673,1663334762371,-0.28389126,-0.3082488,0.20700087
674,1663334762374,-0.34925193,-0.28870168,0.22899136
675,1663334762377,-0.4121692,-0.2654895,0.25098187
676,1663334762379,-0.47630814,-0.2386122,0.27236152
677,1663334762380,-0.5355603,-0.20990239,0.29190862
678,1663334762384,-0.59297997,-0.17691664,0.30656898
679,1663334762385,-0.6503996,-0.1414875,0.32367268
680,1663334762388,-0.70598674,-0.10483666,0.33527878
681,1663334762390,-0.7585196,-0.06940752,0.34505233
682,1663334762393,-0.8104416,-0.03642177,0.35116082
683,1663334762395,-0.85503346,-0.006490252,0.35910183
684,1663334762397,-0.89779276,0.017943637,0.36093438
685,1663334762399,-0.93627614,0.036879905,0.36215606
686,1663334762402,-0.96865106,0.049707696,0.36337775
687,1663334762404,-0.9973609,0.057037864,0.36093438
688,1663334762406,-1.0224056,0.06314634,0.35849097
689,1663334762410,-1.0425636,0.06986566,0.35543674
690,1663334762412,-1.0578347,0.074141584,0.35054997
691,1663334762413,-1.0724951,0.07963921,0.34260896
692,1663334762416,-1.084712,0.0820826,0.33466795
693,1663334762422,-1.0908206,0.0820826,0.32428354
694,1663334762422,-1.096929,0.07841752,0.31267744
695,1663334762423,-1.1012049,0.07230905,0.30107135
696,1663334762425,-1.1024266,0.061313793,0.28702185
697,1663334762428,-1.1018157,0.045431767,0.2717507
698,1663334762430,-1.100594,0.024662958,0.25709033
699,1663334762432,-1.0987616,-0.003436016,0.24304086
700,1663334762434,-1.0981506,-0.03642177,0.22838052
701,1663334762438,-1.096929,-0.07490514,0.21433103
702,1663334762440,-1.0938747,-0.11644276,0.20333578
703,1663334762442,-1.0883771,-0.16103461,0.19295138
704,1663334762445,-1.0828794,-0.20684816,0.18317783
705,1663334762447,-1.0755494,-0.25082916,0.17706935
706,1663334762449,-1.0651649,-0.29297763,0.17157172
707,1663334762450,-1.0505046,-0.33146098,0.16851749
708,1663334762455,-1.0352334,-0.3638359,0.16790664
709,1663334762456,-1.0199622,-0.39010233,0.1672958
710,1663334762459,-1.0016367,-0.41148198,0.17340426
711,1663334762462,-0.98392224,-0.42675316,0.17829104
712,1663334762463,-0.9655968,-0.43713757,0.18012358
713,1663334762466,-0.944828,-0.43958095,0.18439952
714,1663334762467,-0.9277243,-0.43835926,0.1880646
715,1663334762471,-0.9075663,-0.43163994,0.19295138
716,1663334762474,-0.89107347,-0.4206447,0.19539477
717,1663334762475,-0.8721372,-0.40598437,0.19905984
718,1663334762478,-0.8556443,-0.3870481,0.20211409
719,1663334762480,-0.8403731,-0.36689013,0.20272493
720,1663334762481,-0.8244911,-0.34612134,0.20394664
721,1663334762485,-0.81105244,-0.32046574,0.20394664
722,1663334762488,-0.79639214,-0.2917559,0.20272493
723,1663334762491,-0.7792884,-0.25938103,0.20028155
724,1663334762492,-0.7615738,-0.22395188,0.19356222
725,1663334762495,-0.74141586,-0.18607935,0.1868429
726,1663334762498,-0.7163711,-0.1427092,0.1752368
727,1663334762499,-0.6913264,-0.09750649,0.16424155
728,1663334762501,-0.6650599,-0.049860407,0.15019207
729,1663334762504,-0.63512844,-0.001603474,0.13431004
730,1663334762506,-0.6033644,0.047875155,0.115984626
731,1663334762511,-0.5709895,0.096742935,0.096437514
732,1663334762511,-0.5349495,0.14377818,0.077501245
733,1663334762513,-0.49768782,0.1908134,0.05856498
734,1663334762515,-0.45859358,0.23479441,0.03840702
735,1663334762518,-0.41766682,0.27816457,0.020081604
736,1663334762520,-0.37429667,0.32153472,0.004810422
737,1663334762523,-0.32970482,0.36307234,-0.0122933015
738,1663334762524,-0.27961534,0.40033403,-0.024510246
739,1663334762527,-0.228915,0.43515232,-0.033672955
740,1663334762531,-0.17638214,0.46874893,-0.04161397
741,1663334762532,-0.12140589,0.50051296,-0.0458899
742,1663334762535,-0.06765133,0.5292228,-0.048944138
743,1663334762537,-0.009620844,0.5542675,-0.046500746
744,1663334762539,0.046577103,0.57809055,-0.046500746
745,1663334762545,0.10460759,0.6006919,-0.04161397
746,1663334762545,0.16324893,0.6196282,-0.03917058
747,1663334762548,0.22066857,0.63612103,-0.034283802
748,1663334762551,0.27625567,0.65383565,-0.02817533
749,1663334762553,0.33001024,0.66849595,-0.02145601
750,1663334762554,0.38315395,0.68010205,-0.015347538
751,1663334762556,0.4381302,0.69231904,-0.011682454
752,1663334762558,0.49005222,0.7020926,-0.007406523
753,1663334762561,0.5401417,0.71125525,-0.0031305922
754,1663334762563,0.58900946,0.7173638,0.0017561859
755,1663334762565,0.63543385,0.71980715,0.0041995747
756,1663334762566,0.67819315,0.7167529,0.0041995747
757,1663334762569,0.72095245,0.71247697,0.0035887277
758,1663334762572,0.7612684,0.7057577,0.004810422
759,1663334762574,0.80036265,0.69537324,0.0041995747
760,1663334762577,0.8333484,0.6831563,0.004810422
761,1663334762580,0.8651124,0.6672743,0.0011453386
762,1663334762582,0.8968765,0.65017056,-7.635591e-05
763,1663334762586,0.9255863,0.63306683,-0.0037414394
764,1663334762586,0.9542961,0.61290884,-0.0080173705
765,1663334762589,0.97934085,0.59091836,-0.011071607
766,1663334762590,1.0019422,0.5695387,-0.014736691
767,1663334762594,1.0221002,0.54693735,-0.02145601
768,1663334762596,1.0392039,0.52433604,-0.027564483
769,1663334762598,1.0550859,0.49990213,-0.036116343
770,1663334762600,1.0673028,0.47668993,-0.045279052
771,1663334762604,1.0782981,0.4504235,-0.05505261
772,1663334762605,1.0856283,0.42415705,-0.062382776
773,1663334762607,1.0929585,0.39666894,-0.07032379
774,1663334762609,1.098456,0.37101334,-0.07887565
775,1663334762613,1.099067,0.3441361,-0.09048175
776,1663334762613,1.1002886,0.31786963,-0.09659022
777,1663334762617,1.0978452,0.29343575,-0.10514209
778,1663334762619,1.0935693,0.26900187,-0.11247225
779,1663334762622,1.0856283,0.24395712,-0.11919157
780,1663334762623,1.0758548,0.21769069,-0.1246892
781,1663334762626,1.0642487,0.1908134,-0.13140851
782,1663334762629,1.0483667,0.16271444,-0.13629529
783,1663334762631,1.0294304,0.13339376,-0.14240377
784,1663334762634,1.006829,0.10346226,-0.14790139
785,1663334762636,0.9823951,0.07291989,-0.15095563
786,1663334762639,0.95185274,0.04421007,-0.15584241
787,1663334762641,0.92192125,0.016111096,-0.16011834
788,1663334762643,0.8852704,-0.01137703,-0.16439427
789,1663334762645,0.8480087,-0.03825431,-0.1662268
790,1663334762649,0.80708194,-0.06207735,-0.16805935
791,1663334762650,0.76493347,-0.08406785,-0.1711136
792,1663334762652,0.71789825,-0.10483666,-0.17233528
793,1663334762655,0.6696413,-0.12499462,-0.17233528
794,1663334762657,0.62016267,-0.13965495,-0.17233528
795,1663334762659,0.567019,-0.15370443,-0.17050274
796,1663334762662,0.5132644,-0.16469969,-0.16805935
797,1663334762663,0.45950985,-0.17325155,-0.1674485
798,1663334762666,0.40270105,-0.17630579,-0.16500512
799,1663334762669,0.34528142,-0.17691664,-0.16134003
800,1663334762672,0.28847262,-0.17569494,-0.15645325
801,1663334762673,0.22983128,-0.1738624,-0.15400986
802,1663334762681,0.16996825,-0.16714308,-0.14973393
803,1663334762681,0.11010522,-0.16042376,-0.1466797
804,1663334762681,0.051463883,-0.15309359,-0.14301461
805,1663334762683,-0.008399149,-0.1427092,-0.13751699
806,1663334762686,-0.06826218,-0.13354649,-0.12957597
807,1663334762692,-0.12751436,-0.12438377,-0.123467505
808,1663334762692,-0.1873774,-0.11583191,-0.11613733
809,1663334762695,-0.24601874,-0.10728005,-0.10575293
810,1663334762695,-0.300995,-0.098117344,-0.09659022
811,1663334762697,-0.35658208,-0.09017633,-0.08803836
812,1663334762699,-0.40789327,-0.08406785,-0.07887565
813,1663334762702,-0.45859358,-0.079181075,-0.07093464
814,1663334762704,-0.5080722,-0.07490514,-0.06177193
815,1663334762707,-0.5544966,-0.07062922,-0.053830914
816,1663334762709,-0.59908843,-0.066353284,-0.047111593
817,1663334762712,-0.6406261,-0.066353284,-0.040392276
818,1663334762713,-0.68216366,-0.06574243,-0.031840414
819,1663334762716,-0.7224796,-0.066353284,-0.026953636
820,1663334762719,-0.7591304,-0.06696413,-0.02145601
821,1663334762722,-0.79578125,-0.06879667,-0.016569233
822,1663334762723,-0.83121043,-0.06757498,-0.011682454
823,1663334762727,-0.86541784,-0.06513159,-0.0080173705
824,1663334762729,-0.8984036,-0.063299045,-0.004352287
825,1663334762730,-0.9307785,-0.060855657,0.0005344914
826,1663334762734,-0.96071005,-0.059023116,0.004810422
827,1663334762734,-0.99064153,-0.057190575,0.0060321167
828,1663334762737,-1.0162971,-0.05841227,0.010308048
829,1663334762739,-1.0407311,-0.059633963,0.018249061
830,1663334762743,-1.0651649,-0.063909896,0.022524992
831,1663334762745,-1.0883771,-0.06940752,0.02741177
832,1663334762746,-1.1073134,-0.07551599,0.03413109
833,1663334762752,-1.1262497,-0.082235314,0.03840702
834,1663334762752,-1.1433533,-0.09017633,0.04573719
835,1663334762756,-1.1616788,-0.09933904,0.050013117
836,1663334762756,-1.1781716,-0.10911259,0.05612159
837,1663334762762,-1.192832,-0.1182753,0.059175827
838,1663334762762,-1.2093248,-0.12804885,0.06467345
839,1663334762767,-1.2227635,-0.13843326,0.068338536
840,1663334762767,-1.2362021,-0.14820682,0.07200362
841,1663334762768,-1.2471974,-0.15859123,0.0768904
842,1663334762770,-1.2618577,-0.16897562,0.07627955
843,1663334763285,0.76432264,0.39422554,-0.016569233
844,1663334763285,0.7728745,0.38139775,-0.02145601
845,1663334763285,0.78020465,0.36490488,-0.023288552
846,1663334763285,0.786924,0.34291437,-0.028786177
847,1663334763285,0.7942541,0.32214558,-0.03245126
848,1663334763288,0.80036265,0.29587916,-0.036116343
849,1663334763290,0.8058602,0.2696127,-0.040392276
850,1663334763293,0.810747,0.24029204,-0.04344651
851,1663334763295,0.81502295,0.20974968,-0.050165832
852,1663334763299,0.8180772,0.17615308,-0.053830914
853,1663334763299,0.8217423,0.14255647,-0.058106847
854,1663334763302,0.8180772,0.10773818,-0.06299362
855,1663334763305,0.81502295,0.07291989,-0.066658705
856,1663334763306,0.8131904,0.03993414,-0.07154548
857,1663334763310,0.8064711,0.0045049987,-0.07521057
858,1663334763312,0.7985301,-0.0290916,-0.0794865
859,1663334763315,0.78814566,-0.0626882,-0.08131904
860,1663334763316,0.7740962,-0.0962848,-0.08681667
861,1663334763320,0.76065755,-0.12804885,-0.088649206
862,1663334763320,0.742943,-0.15736952,-0.08926006
863,1663334763323,0.72461754,-0.18607935,-0.091092594
864,1663334763325,0.7032379,-0.21112408,-0.091703445
865,1663334763328,0.6812474,-0.23433629,-0.09475768
866,1663334763330,0.6543701,-0.2538834,-0.09659022
867,1663334763332,0.62871456,-0.2697654,-0.09536853
868,1663334763336,0.6018373,-0.2838149,-0.09475768
869,1663334763337,0.57190573,-0.29297763,-0.09414683
870,1663334763340,0.54197425,-0.30091864,-0.09414683
871,1663334763341,0.5095993,-0.3070271,-0.092314295
872,1663334763344,0.4772244,-0.31252474,-0.0898709
873,1663334763348,0.44423866,-0.3149681,-0.08681667
874,1663334763351,0.41003123,-0.31618983,-0.08437328
875,1663334763351,0.37643462,-0.31435728,-0.08009735
876,1663334763354,0.34039465,-0.31252474,-0.075821415
877,1663334763358,0.30557635,-0.3082488,-0.06910209
878,1663334763361,0.26953635,-0.30275118,-0.060550235
879,1663334763363,0.23288552,-0.29481015,-0.05077668
880,1663334763365,0.19745637,-0.28564745,-0.042224817
881,1663334763367,0.158973,-0.27648473,-0.031840414
882,1663334763368,0.12110047,-0.2679329,-0.020845164
883,1663334763371,0.08322794,-0.25693762,-0.0098499125
884,1663334763373,0.044133715,-0.24594238,0.0023670332
885,1663334763374,0.00503949,-0.23433629,0.014583978
886,1663334763377,-0.03466558,-0.22273017,0.028022617
887,1663334763380,-0.07437065,-0.21173494,0.04146126
888,1663334763383,-0.11346488,-0.19890714,0.054899897
889,1663334763389,-0.1525591,-0.18485765,0.06894939
890,1663334763389,-0.19104248,-0.16897562,0.08055548
891,1663334763389,-0.2301367,-0.15248275,0.09399412
892,1663334763391,-0.26800925,-0.13415733,0.10682192
893,1663334763393,-0.30588177,-0.117053606,0.11903886
894,1663334763399,-0.3437543,-0.09933904,0.13064496
895,1663334763399,-0.381016,-0.08284616,0.1416402
896,1663334763400,-0.41583428,-0.06452074,0.14897038
897,1663334763403,-0.4512634,-0.04741702,0.16057648
898,1663334763405,-0.48424917,-0.030313294,0.17035003
899,1663334763410,-0.51845664,-0.015042114,0.17706935
900,1663334763410,-0.5483881,0.000839915,0.18195613
901,1663334763413,-0.5789305,0.015500249,0.18623206
902,1663334763416,-0.6094729,0.027106347,0.18928629
903,1663334763417,-0.64001524,0.03565821,0.19234054
904,1663334763420,-0.6717793,0.04421007,0.19295138
905,1663334763423,-0.70171076,0.05092939,0.19661646
906,1663334763424,-0.7316423,0.05581617,0.19783816
907,1663334763426,-0.7615738,0.058870405,0.20150323
908,1663334763429,-0.7933379,0.0600921,0.1996707
909,1663334763432,-0.8244911,0.058870405,0.1996707
910,1663334763434,-0.8525901,0.05581617,0.1996707
911,1663334763440,-0.8831324,0.049707696,0.19722731
912,1663334763440,-0.90939885,0.041155834,0.19295138
913,1663334763441,-0.9344436,0.031993125,0.18867545
914,1663334763444,-0.95582324,0.024052111,0.18439952
915,1663334763445,-0.97659206,0.011835165,0.1776802
916,1663334763448,-0.9936958,-0.00038177954,0.17218257
917,1663334763450,-1.0101887,-0.016874656,0.16363071
918,1663334763453,-1.0242381,-0.03642177,0.15507884
919,1663334763455,-1.0334009,-0.057190575,0.14652699
920,1663334763457,-1.0401201,-0.07673769,0.13858597
921,1663334763459,-1.0456178,-0.09872819,0.12881242
922,1663334763463,-1.0486721,-0.1182753,0.11964971
923,1663334763466,-1.0511154,-0.14087665,0.110487
924,1663334763467,-1.0517262,-0.16775393,0.100102596
925,1663334763471,-1.0492829,-0.1946312,0.093383275
926,1663334763472,-1.045007,-0.22578442,0.08605311
927,1663334763474,-1.0401201,-0.25754848,0.08177718
928,1663334763476,-1.0340117,-0.28870168,0.078112096
929,1663334763479,-1.0260707,-0.3174115,0.07383616
930,1663334763481,-1.0138538,-0.3442888,0.07322531
931,1663334763485,-0.9979717,-0.36872268,0.07627955
932,1663334763488,-0.9814788,-0.39376742,0.077501245
933,1663334763489,-0.9625426,-0.41575792,0.07933379
934,1663334763490,-0.9423846,-0.4359159,0.084220566
935,1663334763493,-0.92100495,-0.45607382,0.08788565
936,1663334763496,-0.89657104,-0.4750101,0.09155073
937,1663334763498,-0.872748,-0.49516806,0.09704836
938,1663334763500,-0.8477033,-0.51654774,0.099491745
939,1663334763503,-0.81899345,-0.5385382,0.0988809
940,1663334763504,-0.7908945,-0.5617504,0.09827005
941,1663334763506,-0.76340634,-0.587406,0.0988809
942,1663334763509,-0.73225313,-0.615505,0.09765921
943,1663334763512,-0.7004891,-0.6417714,0.09460497
944,1663334763514,-0.668725,-0.6668161,0.092772424
945,1663334763517,-0.63573927,-0.68819577,0.08910734
946,1663334763524,-0.60031015,-0.7095755,0.08544226
947,1663334763524,-0.5636593,-0.7242358,0.08055548
948,1663334763524,-0.52578676,-0.7376744,0.07627955
949,1663334763526,-0.4873034,-0.7462263,0.07261447
950,1663334763529,-0.4457658,-0.7517239,0.06894939
951,1663334763532,-0.40667155,-0.7529456,0.06345176
952,1663334763534,-0.36635566,-0.7523348,0.057343286
953,1663334763536,-0.32176378,-0.74317205,0.05428905
954,1663334763538,-0.27839363,-0.7309551,0.048180576
955,1663334763540,-0.23441264,-0.7126297,0.043904647
956,1663334763543,-0.19043164,-0.6900283,0.039017867
957,1663334763545,-0.1446181,-0.66437274,0.033520244
958,1663334763548,-0.100026235,-0.6319978,0.028633466
959,1663334763550,-0.056045234,-0.59717953,0.022524992
960,1663334763552,-0.01267508,-0.5574745,0.015805673
961,1663334763555,0.032527618,-0.515326,0.010308048
962,1663334763558,0.075286925,-0.47012332,0.0035887277
963,1663334763559,0.11804623,-0.4218664,-0.00068720314
964,1663334763563,0.158973,-0.37238777,-0.0061848285
965,1663334763565,0.19928892,-0.3222983,-0.013514996
966,1663334763566,0.23716144,-0.27037627,-0.018401774
967,1663334763569,0.2738123,-0.21723256,-0.023288552
968,1663334763572,0.30740887,-0.1622563,-0.03061872
969,1663334763573,0.33795124,-0.10728005,-0.035505496
970,1663334763575,0.36666107,-0.053525493,-0.03978143
971,1663334763579,0.39476004,-0.0009926268,-0.044668205
972,1663334763582,0.4185831,0.04909685,-0.047111593
973,1663334763582,0.44240612,0.096742935,-0.047111593
974,1663334763585,0.46622917,0.14255647,-0.047722444
975,1663334763588,0.48821968,0.18714833,-0.047722444
976,1663334763589,0.5089885,0.22746424,-0.045279052
977,1663334763592,0.53036815,0.26533678,-0.040392276
978,1663334763596,0.5511369,0.30015507,-0.038559735
979,1663334763597,0.57312745,0.33252996,-0.03489465
980,1663334763599,0.5932854,0.36307234,-0.031840414
981,1663334763601,0.61588675,0.39178216,-0.03000787
982,1663334763604,0.63909894,0.4168269,-0.026953636
983,1663334763606,0.66353285,0.4388174,-0.024510246
984,1663334763610,0.6885776,0.45897534,-0.024510246
985,1663334763611,0.7111789,0.47546825,-0.023899399
986,1663334763614,0.73622364,0.48707435,-0.022677705
987,1663334763617,0.76493347,0.49745873,-0.020234315
988,1663334763618,0.79181075,0.5035672,-0.020845164
989,1663334763620,0.8223531,0.50784314,-0.019623468
990,1663334763623,0.8522846,0.5108974,-0.018401774
991,1663334763624,0.8846595,0.5133408,-0.016569233
992,1663334763627,0.9176453,0.51272994,-0.014736691
993,1663334763631,0.95307446,0.50784314,-0.011071607
994,1663334763633,0.9885036,0.5017347,-0.0086282175
995,1663334763636,1.0245435,0.49196112,-0.007406523
996,1663334763638,1.0624161,0.48096585,-0.002519745
997,1663334763640,1.0966235,0.4675272,-0.00068720314
998,1663334763641,1.130831,0.4504235,0.0029778804
999,1663334763645,1.1626714,0.43087637,0.0066429637
1000,1663334763647,1.1932138,0.40827504,0.010918895
1001,1663334763649,1.220091,0.38261944,0.015194826
1002,1663334763652,1.244525,0.35513133,0.018249061
1003,1663334763655,1.2634612,0.32581067,0.021914145
1004,1663334763656,1.2805649,0.2952683,0.02741177
1005,1663334763658,1.2909493,0.26472592,0.03229855
1006,1663334763663,1.2995012,0.23418356,0.037796173
1007,1663334763663,1.3043879,0.20303036,0.044515494
1008,1663334763666,1.3025554,0.17065546,0.050013117
1009,1663334763669,1.2995012,0.14133479,0.05612159
1010,1663334763670,1.2897277,0.11018158,0.062230065
1011,1663334763672,1.2726239,0.08025006,0.06894939
1012,1663334763675,1.252466,0.050318543,0.07505786
1013,1663334763677,1.2274212,0.024662958,0.07994463
1014,1663334763680,1.1993222,-0.00038177954,0.08605311
1015,1663334763682,1.1657256,-0.02481567,0.090329036
1016,1663334763684,1.1283876,-0.04497363,0.09827005
1017,1663334763687,1.0844066,-0.0626882,0.10315683
1018,1663334763689,1.0379822,-0.07857023,0.109265305
1019,1663334763691,0.9885036,-0.09200887,0.11354123
1020,1663334763694,0.9359707,-0.104225814,0.11903886
1021,1663334763696,0.8797728,-0.11277767,0.12270394
1022,1663334763699,0.8223531,-0.120107844,0.12820157
1023,1663334763701,0.7600467,-0.12621632,0.13186665
1024,1663334763703,0.69835114,-0.1311031,0.13614258
1025,1663334763705,0.634823,-0.13415733,0.14102936
1026,1663334763707,0.56885153,-0.13415733,0.14591613
1027,1663334763711,0.50349087,-0.13293563,0.15202461
1028,1663334763713,0.4369085,-0.1311031,0.15630054
1029,1663334763715,0.370937,-0.12743801,0.16057648
1030,1663334763718,0.3025221,-0.12255123,0.16546325
1031,1663334763720,0.23593976,-0.1182753,0.17035003
1032,1663334763722,0.1681357,-0.110945135,0.17462596
1033,1663334763724,0.10094251,-0.104225814,0.1789019
1034,1663334763728,0.033749312,-0.09689565,0.18317783
1035,1663334763729,-0.032222193,-0.088343784,0.1868429
1036,1663334763732,-0.10124794,-0.08101362,0.1880646
1037,1663334763733,-0.16599774,-0.07185091,0.19234054
1038,1663334763736,-0.22952586,-0.063299045,0.19417307
1039,1663334763743,-0.29183227,-0.053525493,0.19356222
1040,1663334763743,-0.3504736,-0.04314109,0.19417307
1041,1663334763743,-0.4085041,-0.033367533,0.19539477
1042,1663334763746,-0.46348035,-0.020539738,0.19417307
1043,1663334763748,-0.51479155,-0.0077119465,0.19295138
1044,1663334763751,-0.564881,0.008170082,0.19111884
1045,1663334763753,-0.6143596,0.024662958,0.1880646
1046,1663334763754,-0.6620057,0.040544987,0.18501036
1047,1663334763757,-0.70537585,0.058259558,0.18256697
1048,1663334763760,-0.74874604,0.07597413,0.1776802
1049,1663334763762,-0.78784025,0.09185616,0.17401512
1050,1663334763765,-0.8257128,0.10773818,0.16912833
1051,1663334763767,-0.8611419,0.12300937,0.16546325
1052,1663334763770,-0.8953494,0.1376697,0.16179816
1053,1663334763773,-0.9277243,0.15171918,0.15813309
1054,1663334763783,-0.95704496,0.16332528,0.15324631
1055,1663334763783,-0.9857548,0.17187715,0.14897038
1056,1663334763783,-1.012632,0.17920731,0.1440836
1057,1663334763784,-1.0407311,0.1828724,0.13675343
1058,1663334763784,-1.0627215,0.18531579,0.13186665
1059,1663334763786,-1.0859337,0.18470494,0.12759072
1060,1663334763789,-1.1054808,0.17859647,0.12270394
1061,1663334763791,-1.1219738,0.16943376,0.11659547
1062,1663334763793,-1.1335799,0.15538427,0.110487
1063,1663334763795,-1.1409099,0.1388914,0.10498937
1064,1663334763799,-1.144575,0.11690089,0.100102596
1065,1663334763799,-1.1427425,0.09491039,0.093383275
1066,1663334763802,-1.1360232,0.071698196,0.087274805
1067,1663334763805,-1.1244171,0.045431767,0.08238802
1068,1663334763807,-1.1103677,0.01733279,0.077501245
1069,1663334763810,-1.0902096,-0.009544488,0.07261447
1070,1663334763812,-1.0669974,-0.03825431,0.068338536
1071,1663334763815,-1.0413419,-0.06757498,0.06589515
1072,1663334763817,-1.0114104,-0.09750649,0.06100837
1073,1663334763819,-0.9778137,-0.12682717,0.057954133
1074,1663334763821,-0.9423846,-0.15614784,0.057954133
1075,1663334763823,-0.90573376,-0.18485765,0.059175827
1076,1663334763826,-0.8635853,-0.21417832,0.062230065
1077,1663334763828,-0.82265854,-0.24410984,0.062230065
1078,1663334763831,-0.77745587,-0.27526304,0.06711684
1079,1663334763834,-0.73469657,-0.30641624,0.06956023
1080,1663334763836,-0.69071555,-0.33940202,0.07566871
1081,1663334763837,-0.64673454,-0.37116608,0.08055548
1082,1663334763840,-0.6021427,-0.4029301,0.08544226
1083,1663334763844,-0.5581617,-0.43286163,0.090329036
1084,1663334763845,-0.512959,-0.46096063,0.09704836
1085,1663334763847,-0.46592376,-0.48783788,0.10498937
1086,1663334763849,-0.4164451,-0.5110501,0.11170869
1087,1663334763853,-0.36269057,-0.5305972,0.11964971
1088,1663334763854,-0.3077143,-0.5458684,0.12820157
1089,1663334763857,-0.24968381,-0.55991787,0.13675343
1090,1663334763859,-0.19165333,-0.57152396,0.14225106
1091,1663334763863,-0.12995775,-0.5806867,0.14591613
1092,1663334763864,-0.068873025,-0.5861843,0.14835952
1093,1663334763867,-0.0071774554,-0.5916819,0.14652699
1094,1663334763870,0.055739813,-0.59412533,0.14347275
1095,1663334763871,0.11987878,-0.5965687,0.1349209
1096,1663334763872,0.18279605,-0.5977904,0.12636903
1097,1663334763877,0.24265908,-0.59351444,0.11415208
1098,1663334763878,0.3037438,-0.58679515,0.10071344
1099,1663334763881,0.3617743,-0.579465,0.08605311
1100,1663334763885,0.4185831,-0.5678589,0.07017108
1101,1663334763885,0.47355935,-0.55564195,0.05612159
1102,1663334763887,0.52181625,-0.53975993,0.039017867
1103,1663334763890,0.56579727,-0.51960194,0.022524992
1104,1663334763893,0.6048915,-0.4970006,0.008475506
1105,1663334763894,0.63909894,-0.47317755,-0.0086282175
1106,1663334763897,0.66658705,-0.44752198,-0.023899399
1107,1663334763900,0.68979925,-0.41636875,-0.037338037
1108,1663334763903,0.70629215,-0.38032877,-0.051387526
1109,1663334763903,0.7185091,-0.34123456,-0.06421532
1110,1663334763906,0.7288935,-0.29725355,-0.075821415
1111,1663334763909,0.73378026,-0.25082916,-0.085594974
1112,1663334763912,0.7392779,-0.19951798,-0.092314295
1113,1663334763914,0.74233216,-0.14820682,-0.09597938
1114,1663334763916,0.74111044,-0.094452254,-0.098422766
1115,1663334763919,0.7404996,-0.04191939,-0.09964446
1116,1663334763920,0.7386671,0.01305686,-0.100866154
1117,1663334763927,0.73622364,0.06681142,-0.1002553
1118,1663334763927,0.73072606,0.11934429,-0.09903361
1119,1663334763927,0.72828263,0.17065546,-0.09720107
1120,1663334763931,0.7252284,0.22135578,-0.09475768
1121,1663334763933,0.7233959,0.2696127,-0.09536853
1122,1663334763935,0.7233959,0.3160371,-0.09536853
1123,1663334763937,0.7233959,0.36062896,-0.09414683
1124,1663334763939,0.7264501,0.40094486,-0.09353599
1125,1663334763943,0.7301152,0.43820655,-0.09414683
1126,1663334763944,0.735002,0.47058147,-0.09475768
1127,1663334763947,0.7404996,0.50112385,-0.09414683
1128,1663334763949,0.7496623,0.5261686,-0.09414683
1129,1663334763952,0.76065755,0.54693735,-0.09292514
1130,1663334763953,0.7710419,0.5640411,-0.092314295
1131,1663334763956,0.78020465,0.5768689,-0.09414683
1132,1663334763959,0.7911999,0.5860316,-0.09292514
1133,1663334763961,0.80341685,0.5915292,-0.092314295
1134,1663334763964,0.81624466,0.5939726,-0.091703445
1135,1663334763966,0.82662904,0.59458345,-0.091703445
1136,1663334763968,0.8370135,0.5927509,-0.08803836
1137,1663334763970,0.8443436,0.5854207,-0.08742751
1138,1663334763972,0.8528955,0.57809055,-0.08315159
1139,1663334763975,0.85839313,0.5652628,-0.08009735
1140,1663334763977,0.8651124,0.5499916,-0.07459972
1141,1663334763980,0.87061006,0.5298336,-0.07093464
1142,1663334763983,0.8736643,0.50417805,-0.067269556
1143,1663334763985,0.8767185,0.47668993,-0.062382776
1144,1663334763986,0.8767185,0.44553673,-0.057496
1145,1663334763989,0.87732935,0.4131618,-0.053830914
1146,1663334763992,0.8767185,0.3795652,-0.04833329
1147,1663334763995,0.8718318,0.3441361,-0.042835664
1148,1663334763996,0.86999923,0.30931777,-0.041003123
1149,1663334763999,0.86694497,0.27449948,-0.03489465
1150,1663334764002,0.8638907,0.2396812,-0.028786177
1151,1663334764002,0.85900396,0.20425205,-0.025121093
1152,1663334764005,0.85411716,0.1712663,-0.01901262
1153,1663334764008,0.8486196,0.14011309,-0.013514996
1154,1663334764011,0.83945686,0.10957073,-0.0098499125
1155,1663334764013,0.83029413,0.08025006,-0.0031305922
1156,1663334764016,0.8205206,0.05276193,0.0023670332
1157,1663334764018,0.80708194,0.027717194,0.007253811
1158,1663334764020,0.794865,0.0020616094,0.013362284
1159,1663334764021,0.7808155,-0.021761434,0.02069245
1160,1663334764025,0.7624901,-0.045584477,0.024968382
1161,1663334764027,0.7435538,-0.06940752,0.031687703
1162,1663334764030,0.72217417,-0.08956548,0.037796173
1163,1663334764032,0.69774026,-0.10911259,0.042682953
1164,1663334764034,0.67147386,-0.12560546,0.048791423
1165,1663334764037,0.64398575,-0.1390441,0.054899897
1166,1663334764038,0.61466503,-0.15003936,0.059786674
1167,1663334764044,0.5816793,-0.15981291,0.06345176
1168,1663334764044,0.5505261,-0.16469969,0.06894939
1169,1663334764046,0.5144861,-0.16958646,0.07322531
1170,1663334764051,0.47783527,-0.16836478,0.077501245
1171,1663334764052,0.44057357,-0.16592139,0.08116633
1172,1663334764053,0.40147936,-0.15981291,0.083609715
1173,1663334764055,0.3617743,-0.1506502,0.08544226
1174,1663334764058,0.31840414,-0.13660072,0.086663954
1175,1663334764061,0.27625567,-0.11949699,0.08971819
1176,1663334764063,0.23166382,-0.09933904,0.090329036
1177,1663334764065,0.18829367,-0.07368345,0.09216158
1178,1663334764066,0.14492351,-0.043751936,0.09704836
1179,1663334764069,0.097277425,-0.011987877,0.10193513
1180,1663334764071,0.05207473,0.024052111,0.10560022
1181,1663334764075,0.0019852535,0.061313793,0.109265305
1182,1663334764077,-0.047493376,0.10101887,0.11415208
1183,1663334764081,-0.096972,0.13828056,0.118428014
1184,1663334764086,-0.15133741,0.17615308,0.12331479
1185,1663334764086,-0.20387027,0.21097137,0.12942326
1186,1663334764086,-0.2582357,0.24395712,0.13247749
1187,1663334764088,-0.31199023,0.2732778,0.13919681
1188,1663334764091,-0.3669665,0.29648998,0.1428619
1189,1663334764093,-0.42133188,0.31664795,0.14652699
1190,1663334764097,-0.47508645,0.33252996,0.15019207
1191,1663334764098,-0.5270085,0.34352523,0.15385716
1192,1663334764100,-0.5752654,0.35329878,0.1556897
1193,1663334764103,-0.62413317,0.3575747,0.15813309
1194,1663334764104,-0.66994673,0.35879642,0.15996562
1195,1663334764106,-0.712706,0.35879642,0.15996562
1196,1663334764109,-0.75180024,0.35390964,0.16485241
1197,1663334764113,-0.79150534,0.34535778,0.16546325
1198,1663334764115,-0.8281562,0.33069745,0.1672958
1199,1663334764118,-0.86236364,0.31420457,0.1660741
1200,1663334764119,-0.8959602,0.29587916,0.16485241
1201,1663334764122,-0.9271134,0.27083442,0.16546325
1202,1663334764124,-0.9552124,0.24212459,0.16424155
1203,1663334764127,-0.98392224,0.21219307,0.16363071
1204,1663334764130,-1.0114104,0.18103985,0.16057648
1205,1663334764132,-1.036455,0.14622156,0.16118732
1206,1663334764133,-1.060889,0.112624966,0.15996562
1207,1663334764135,-1.0822686,0.07780667,0.16118732
1208,1663334764137,-1.1042591,0.041155834,0.16179816
1209,1663334764141,-1.1262497,0.0051158457,0.16301987
1210,1663334764142,-1.1464076,-0.032756682,0.16546325
1211,1663334764145,-1.1683981,-0.073072605,0.16668494
1212,1663334764148,-1.1891669,-0.11522106,0.17035003
1213,1663334764149,-1.208714,-0.15859123,0.17401512
1214,1663334764152,-1.2282611,-0.20501561,0.17706935
1215,1663334764154,-1.2459757,-0.2526617,0.18134528
1216,1663334764157,-1.2643011,-0.30030778,0.18562122
1217,1663334764159,-1.2832373,-0.3485647,0.18745375
1218,1663334764162,-1.3015628,-0.39682165,0.19111884
1219,1663334764164,-1.3198882,-0.4414135,0.19234054
1220,1663334764166,-1.3376027,-0.4853945,0.19539477
1221,1663334764173,-1.3547065,-0.5257104,0.198449
1222,1663334764173,-1.372421,-0.56358296,0.20211409
1223,1663334764173,-1.3864706,-0.59840125,0.20394664
1224,1663334764176,-1.4011309,-0.631387,0.20700087
1225,1663334764182,-1.4145695,-0.66192937,0.20944425
1226,1663334764182,-1.4243431,-0.68880665,0.21494187
1227,1663334764182,-1.432895,-0.7175165,0.2192178
1228,1663334764187,-1.4396143,-0.7462263,0.22410458
1229,1663334764188,-1.4432794,-0.77860117,0.23021306
1230,1663334764190,-1.4451119,-0.8146412,0.234489
1231,1663334764192,-1.4426686,-0.85190284,0.23693238
1232,1663334764195,-1.43656,-0.8909971,0.23876493
1233,1663334764197,-1.4280082,-0.93436724,0.24059746
1234,1663334764199,-1.4157913,-0.97712654,0.24243
1235,1663334764202,-1.3986875,-1.0168316,0.24304086
1236,1663334764203,-1.3766971,-1.055315,0.24120831
1237,1663334764206,-1.3492088,-1.0908206,0.23754323
1238,1663334764211,-1.316834,-1.1238062,0.234489
1239,1663334764211,-1.280794,-1.1519052,0.22899136
1240,1663334764214,-1.2380347,-1.1763391,0.22043951
1241,1663334764216,-1.1934428,-1.1958863,0.2112768
1242,1663334764219,-1.1421317,-1.2099357,0.20089239
1243,1663334764220,-1.0883771,-1.2197093,0.18867545
1244,1663334764224,-1.0297358,-1.2227635,0.17279342
1245,1663334764225,-0.9662076,-1.2184876,0.15752223
1246,1663334764228,-0.9002361,-1.2062706,0.1416402
1247,1663334764231,-0.83182126,-1.1861126,0.12331479
1248,1663334764234,-0.7621847,-1.1604571,0.10498937
1249,1663334764235,-0.68949383,-1.1293038,0.08544226
1250,1663334764237,-0.6137488,-1.0944855,0.065284304
1251,1663334764240,-0.5404471,-1.0559258,0.04146126
1252,1663334764243,-0.468978,-1.0131665,0.01885991
1253,1663334764244,-0.39750886,-0.96674216,-0.0055739814
1254,1663334764247,-0.32542887,-0.9184852,-0.026953636
1255,1663334764250,-0.25762483,-0.8653415,-0.050165832
1256,1663334764252,-0.19226417,-0.8079218,-0.07398888
1257,1663334764253,-0.1293469,-0.74744797,-0.09659022
1258,1663334764257,-0.06826218,-0.6826982,-0.116748184
1259,1663334764264,-0.01267508,-0.61672664,-0.1350736
1260,1663334764264,0.039246935,-0.54770094,-0.15400986
1261,1663334764264,0.088114716,-0.4774535,-0.1698919
1262,1663334764267,0.13026318,-0.40964943,-0.18516308
1263,1663334764267,0.16630317,-0.34367794,-0.2034885
1264,1663334764270,0.19989976,-0.2838149,-0.21753798
1265,1663334764289,0.23044212,-0.22334103,-0.23097663
1266,1663334764289,0.25670856,-0.16531055,-0.24319357
1267,1663334764289,0.27992076,-0.110945135,-0.25296712
1268,1663334764289,0.30191126,-0.059023116,-0.26274067
1269,1663334764290,0.3257343,-0.008322794,-0.26762745
1270,1663334764290,0.3440597,0.039323293,-0.27373594
1271,1663334764290,0.3654394,0.083915144,-0.277401
1272,1663334764290,0.38559732,0.12972869,-0.28045526
1273,1663334764291,0.40636614,0.17370969,-0.28289863
1274,1663334764293,0.4265241,0.21830153,-0.28289863
1275,1663334764296,0.44668207,0.2616717,-0.28228778
1276,1663334764299,0.46684003,0.30626354,-0.2810661
1277,1663334764300,0.4888305,0.348412,-0.27862272
1278,1663334764303,0.50654507,0.38872793,-0.27679017
1279,1663334764305,0.5273139,0.428433,-0.27312508
1280,1663334764308,0.5444176,0.4620296,-0.27068168
1281,1663334764310,0.562743,0.49623704,-0.26396236
1282,1663334764312,0.5780142,0.52494687,-0.2578539
1283,1663334764315,0.59267455,0.5487699,-0.25113457
1284,1663334764318,0.6061132,0.57014954,-0.24380441
1285,1663334764319,0.62077355,0.58786416,-0.2346417
1286,1663334764322,0.6336013,0.60496783,-0.22486815
1287,1663334764324,0.6452074,0.61779565,-0.21937053
1288,1663334764326,0.6574244,0.6287909,-0.21081866
1289,1663334764330,0.67025214,0.6379536,-0.19982341
1290,1663334764331,0.6800257,0.64589465,-0.19249325
1291,1663334764335,0.6928535,0.6507814,-0.18210883
1292,1663334764336,0.7038488,0.65261394,-0.17355698
1293,1663334764339,0.7117898,0.65322477,-0.16378342
1294,1663334764342,0.722785,0.65261394,-0.15339902
1295,1663334764344,0.73255855,0.64894885,-0.14301461
1296,1663334764346,0.74111044,0.64528376,-0.13446276
1297,1663334764349,0.75027317,0.64100784,-0.12530005
1298,1663334764351,0.75943583,0.63612103,-0.11491564
1299,1663334764352,0.7661552,0.62940174,-0.10575293
1300,1663334764355,0.774707,0.62207156,-0.09659022
1301,1663334764357,0.78142637,0.61413056,-0.088649206
1302,1663334764361,0.78875655,0.60618955,-0.0794865
1303,1663334764363,0.79608667,0.5970268,-0.07093464
1304,1663334764366,0.8009735,0.588475,-0.061161082
1305,1663334764367,0.8058602,0.5799231,-0.053830914
1306,1663334764369,0.8101362,0.5707604,-0.0458899
1307,1663334764372,0.81502295,0.560376,-0.037338037
1308,1663334764374,0.81990975,0.5493808,-0.027564483
1309,1663334764378,0.8217423,0.53533125,-0.01901262
1310,1663334764378,0.8223531,0.52067095,-0.011682454
1311,1663334764381,0.82418567,0.5017347,-0.004352287
1312,1663334764384,0.82357484,0.47852248,0.0029778804
1313,1663334764386,0.82357484,0.45347774,0.011529742
1314,1663334764388,0.82357484,0.42782214,0.020081604
1315,1663334764392,0.82418567,0.3991123,0.028633466
1316,1663334764393,0.82418567,0.36856997,0.037796173
1317,1663334764397,0.82296395,0.33497337,0.044515494
1318,1663334764399,0.8180772,0.29954422,0.050013117
1319,1663334764400,0.81502295,0.26228255,0.057343286
1320,1663334764402,0.81196874,0.22257747,0.062230065
1321,1663334764404,0.80463856,0.18409409,0.06467345
1322,1663334764407,0.79608667,0.14194563,0.066506
1323,1663334764411,0.786924,0.10040802,0.07017108
1324,1663334764412,0.7753179,0.059481252,0.068338536
1325,1663334764414,0.7600467,0.021608721,0.06894939
1326,1663334764418,0.74416465,-0.015042114,0.066506
1327,1663334764419,0.7252284,-0.049860407,0.0640626
1328,1663334764422,0.7056813,-0.08162446,0.06284091
1329,1663334764424,0.68307996,-0.110334285,0.06100837
1330,1663334764427,0.6568135,-0.13598987,0.059175827
1331,1663334764430,0.62871456,-0.16042376,0.057343286
1332,1663334764431,0.5957288,-0.18180342,0.055510744
1333,1663334764433,0.5596888,-0.20012884,0.054899897
1334,1663334764435,0.5205946,-0.21845426,0.054899897
1335,1663334764439,0.48027867,-0.23311459,0.053678203
1336,1663334764440,0.43629766,-0.24655323,0.05428905
1337,1663334764443,0.39109495,-0.25938103,0.054899897
1338,1663334764445,0.3422272,-0.2697654,0.054899897
1339,1663334764448,0.29274854,-0.27648473,0.05612159
1340,1663334764451,0.24326992,-0.28014982,0.057343286
1341,1663334764453,0.19195876,-0.28198236,0.057343286
1342,1663334764454,0.14125843,-0.279539,0.05856498
1343,1663334764457,0.08994726,-0.27281967,0.059786674
1344,1663334764460,0.039857782,-0.2654895,0.05673244
1345,1663334764462,-0.009009997,-0.25449425,0.05673244
1346,1663334764463,-0.060932014,-0.24472068,0.05428905
1347,1663334764465,-0.109188944,-0.23250374,0.053067356
1348,1663334764469,-0.15805672,-0.22211933,0.05245651
1349,1663334764471,-0.20692451,-0.21173494,0.04940227
1350,1663334764473,-0.25395975,-0.20440477,0.04756973
1351,1663334764476,-0.30038413,-0.19951798,0.04573719
1352,1663334764478,-0.3461977,-0.19524206,0.0432938
1353,1663334764481,-0.38956785,-0.19096613,0.042072106
1354,1663334764482,-0.43110546,-0.1854685,0.040850412
1355,1663334764486,-0.47081053,-0.18058172,0.040850412
1356,1663334764491,-0.50685054,-0.1750841,0.039628714
1357,1663334764491,-0.54227966,-0.17141901,0.037185326
1358,1663334764492,-0.57709795,-0.16958646,0.03840702
1359,1663334764494,-0.6106945,-0.16897562,0.037185326
1360,1663334764497,-0.6418477,-0.17325155,0.037185326
1361,1663334764499,-0.67055756,-0.18058172,0.037796173
1362,1663334764501,-0.69499147,-0.19218782,0.03657448
1363,1663334764504,-0.7163711,-0.20990239,0.035352785
1364,1663334764506,-0.73225313,-0.22883865,0.037185326
1365,1663334764509,-0.74508095,-0.24960746,0.04146126
1366,1663334764513,-0.7536328,-0.2746522,0.044515494
1367,1663334764513,-0.7591304,-0.29969692,0.04756973
1368,1663334764517,-0.7597413,-0.32596338,0.05245651
1369,1663334764519,-0.75790876,-0.35467318,0.05673244
1370,1663334764522,-0.7505786,-0.38399386,0.06100837
1371,1663334764523,-0.7420267,-0.41392538,0.06772769
1372,1663334764526,-0.7279772,-0.44446772,0.074447006
1373,1663334764529,-0.71331686,-0.47439924,0.07994463
1374,1663334764530,-0.6931589,-0.5031091,0.08605311
1375,1663334764533,-0.6723901,-0.5305972,0.09216158
1376,1663334764534,-0.6497888,-0.5580853,0.09827005
1377,1663334764538,-0.6229115,-0.5849626,0.10498937
1378,1663334764539,-0.59297997,-0.61000735,0.11109784
1379,1663334764552,-0.56182677,-0.6326087,0.11720632
1380,1663334764552,-0.5245651,-0.6558209,0.121482246
1381,1663334764552,-0.4811949,-0.68025476,0.12636903
1382,1663334764552,-0.43354884,-0.7059104,0.12942326
1383,1663334764552,-0.381016,-0.73278767,0.13186665
1384,1663334764555,-0.32665056,-0.7566107,0.13186665
1385,1663334764556,-0.26495498,-0.7767686,0.13308835
1386,1663334764559,-0.20203774,-0.79448324,0.12942326
1387,1663334764561,-0.13973132,-0.80914354,0.12697987
1388,1663334764565,-0.0749815,-0.81708455,0.12514733
1389,1663334764566,-0.0151184695,-0.82197136,0.12270394
1390,1663334764568,0.041079476,-0.82563645,0.11781716
1391,1663334764572,0.09361234,-0.82563645,0.11415208
1392,1663334764572,0.14003673,-0.8225822,0.110487
1393,1663334764575,0.1809635,-0.81708455,0.10743276
1394,1663334764578,0.21517095,-0.8109761,0.10315683
1395,1663334764581,0.24449162,-0.80120254,0.099491745
1396,1663334764582,0.2677038,-0.791429,0.09399412
1397,1663334764584,0.28786176,-0.7761578,0.08910734
1398,1663334764587,0.30557635,-0.75844324,0.086663954
1399,1663334764589,0.32268006,-0.7358419,0.083609715
1400,1663334764592,0.3385621,-0.70713204,0.07994463
1401,1663334764594,0.35138988,-0.6717029,0.07261447
1402,1663334764598,0.36299598,-0.63077617,0.065284304
1403,1663334764599,0.37521294,-0.5843518,0.057954133
1404,1663334764601,0.38559732,-0.5305972,0.048791423
1405,1663334764604,0.39414918,-0.4750101,0.03840702
1406,1663334764605,0.40270105,-0.4182013,0.026800923
1407,1663334764607,0.40758783,-0.35833827,0.015194826
1408,1663334764610,0.41125292,-0.29969692,0.0035887277
1409,1663334764614,0.41186377,-0.24044475,-0.004352287
1410,1663334764614,0.41125292,-0.18180342,-0.0122933015
1411,1663334764617,0.40758783,-0.12560546,-0.015958386
1412,1663334764620,0.40025768,-0.06940752,-0.019623468
1413,1663334764622,0.39353836,-0.013820419,-0.022066858
1414,1663334764623,0.38559732,0.039323293,-0.01901262
1415,1663334764627,0.37460208,0.09185616,-0.017790927
1416,1663334764631,0.3605526,0.14377818,-0.013514996
1417,1663334764631,0.3501682,0.19264595,-0.007406523
1418,1663334764634,0.3385621,0.24090289,-0.002519745
1419,1663334764637,0.32512346,0.28427303,0.0017561859
1420,1663334764639,0.3141282,0.3288649,0.007253811
1421,1663334764642,0.30435464,0.37040251,0.010918895
1422,1663334764644,0.29641363,0.4107184,0.015805673
1423,1663334764646,0.290916,0.4479801,0.01885991
1424,1663334764648,0.28602922,0.4852418,0.021303298
1425,1663334764651,0.28480753,0.52067095,0.022524992
1426,1663334764653,0.28480753,0.55487835,0.026190076
1427,1663334764655,0.2854184,0.5860316,0.02741177
1428,1663334764660,0.28908345,0.612298,0.02741177
1429,1663334764660,0.29397026,0.6367319,0.02741177
1430,1663334764662,0.3025221,0.65688986,0.026800923
1431,1663334764665,0.31046313,0.67582613,0.026190076
1432,1663334764666,0.31901497,0.68804306,0.023746688
1433,1663334764670,0.3324536,0.69964916,0.021914145
1434,1663334764673,0.34711397,0.7063685,0.01641652
1435,1663334764675,0.36238512,0.71125525,0.012751437
1436,1663334764676,0.3825431,0.7143095,0.007253811
1437,1663334764679,0.40270105,0.71614206,-7.635591e-05
1438,1663334764682,0.42346987,0.71492034,-0.0086282175
1439,1663334764687,0.44423866,0.70820105,-0.018401774
1440,1663334764687,0.46317494,0.70026004,-0.03000787
1441,1663334764689,0.48394373,0.68865395,-0.03978143
1442,1663334764690,0.50593424,0.67338276,-0.050165832
1443,1663334764693,0.52303797,0.65383565,-0.062382776
1444,1663334764696,0.53892,0.63306683,-0.07398888
1445,1663334764698,0.5554129,0.60985464,-0.08498412
1446,1663334764701,0.5700732,0.5835882,-0.09292514
1447,1663334764704,0.5822902,0.55487835,-0.101477005
1448,1663334764705,0.5945071,0.5261686,-0.11002886
1449,1663334764707,0.6024481,0.49868044,-0.11491564
1450,1663334764709,0.6097783,0.472414,-0.11919157
1451,1663334764713,0.6177193,0.44736925,-0.12163496
1452,1663334764715,0.62260604,0.42171368,-0.12224581
1453,1663334764717,0.6232169,0.39789063,-0.12163496
1454,1663334764719,0.6250495,0.3728459,-0.12224581
1455,1663334764722,0.62260604,0.3496337,-0.120413266
1456,1663334764724,0.61955184,0.32581067,-0.119802415
1457,1663334764726,0.61466503,0.30259845,-0.11735903
1458,1663334764729,0.6061132,0.27694288,-0.11552649
1459,1663334764731,0.5957288,0.25373068,-0.11186141
1460,1663334764733,0.5841227,0.23174018,-0.106974624
1461,1663334764735,0.5725166,0.20791714,-0.10330954
1462,1663334764738,0.55785626,0.18714833,-0.098422766
1463,1663334764742,0.5395308,0.16699037,-0.091092594
1464,1663334764745,0.5199837,0.14866495,-0.08620582
1465,1663334764747,0.5010475,0.13033953,-0.08009735
1466,1663334764748,0.47783527,0.11384666,-0.07398888
1467,1663334764750,0.45401222,0.096742935,-0.06543701
1468,1663334764753,0.4301892,0.080860905,-0.057496
1469,1663334764755,0.4045336,0.064978875,-0.046500746
1470,1663334764757,0.37704548,0.048486,-0.036116343
1471,1663334764759,0.3465031,0.033825666,-0.025121093
1472,1663334764762,0.31596074,0.018554486,-0.015347538
1473,1663334764763,0.2854184,0.0026724567,-0.0037414394
1474,1663334764766,0.25365433,-0.010766183,0.009086353
1475,1663334764770,0.22127941,-0.026648212,0.02069245
1476,1663334764771,0.18707198,-0.043751936,0.03229855
1477,1663334765283,-0.30160582,-0.89466214,0.40369368
1478,1663334765283,-0.20753536,-0.8781693,0.37254047
1479,1663334765283,-0.118962504,-0.85556793,0.33894387
1480,1663334765283,-0.03466558,-0.827469,0.30473644
1481,1663334765283,0.042301174,-0.79387236,0.26869643
1482,1663334765285,0.11193776,-0.75477815,0.22960222
1483,1663334765288,0.17546588,-0.71140796,0.19111884
1484,1663334765290,0.23044212,-0.66437274,0.15202461
1485,1663334765293,0.27625567,-0.6118399,0.11170869
1486,1663334765295,0.3129065,-0.55564195,0.07383616
1487,1663334765299,0.3422272,-0.49577892,0.04023956
1488,1663334765301,0.3605526,-0.43530503,0.0060321167
1489,1663334765303,0.3721587,-0.3742203,-0.023899399
1490,1663334765305,0.3776563,-0.31313556,-0.050165832
1491,1663334765307,0.37643462,-0.2502183,-0.07276718
1492,1663334765310,0.3697153,-0.18791188,-0.091703445
1493,1663334765311,0.35994175,-0.12621632,-0.10636378
1494,1663334765314,0.34711397,-0.06513159,-0.11858072
1495,1663334765318,0.3324536,-0.004046863,-0.12407835
1496,1663334765320,0.31840414,0.053372778,-0.12652174
1497,1663334765322,0.3025221,0.112624966,-0.12896512
1498,1663334765324,0.28847262,0.16760121,-0.12774344
1499,1663334765331,0.27564484,0.22196662,-0.1246892
1500,1663334765331,0.26464957,0.27449948,-0.11858072
1501,1663334765331,0.25670856,0.32458895,-0.11125056
1502,1663334765333,0.2481567,0.37040251,-0.107585475
1503,1663334765337,0.24388076,0.41377267,-0.101477005
1504,1663334765338,0.24265908,0.45469943,-0.09659022
1505,1663334765341,0.24265908,0.49379367,-0.09353599
1506,1663334765342,0.24510247,0.53166616,-0.09292514
1507,1663334765345,0.2518218,0.5658736,-0.092314295
1508,1663334765348,0.2585411,0.59947026,-0.091092594
1509,1663334765351,0.26892552,0.6312343,-0.0898709
1510,1663334765353,0.27992076,0.6599441,-0.091703445
1511,1663334765355,0.29580277,0.6892648,-0.091092594
1512,1663334765357,0.31046313,0.7179746,-0.09292514
1513,1663334765360,0.32939938,0.7436302,-0.092314295
1514,1663334765362,0.34589225,0.7680641,-0.091092594
1515,1663334765364,0.3654394,0.79005456,-0.091703445
1516,1663334765366,0.3837648,0.8108234,-0.0898709
1517,1663334765370,0.40514445,0.8303705,-0.08926006
1518,1663334765371,0.4240807,0.84869593,-0.08803836
1519,1663334765374,0.44546035,0.8651888,-0.08681667
1520,1663334765376,0.46317494,0.87984914,-0.08620582
1521,1663334765384,0.4808895,0.89450943,-0.08498412
1522,1663334765384,0.49921492,0.90855896,-0.08315159
1523,1663334765392,0.51509696,0.9213867,-0.08315159
1524,1663334765392,0.530979,0.932382,-0.08192989
1525,1663334765393,0.5438068,0.9391013,-0.07704311
1526,1663334765393,0.55724543,0.9445989,-0.07521057
1527,1663334765393,0.56824064,0.9476532,-0.07215633
1528,1663334765394,0.57740337,0.9507074,-0.06849125
1529,1663334765398,0.5865661,0.9476532,-0.06421532
1530,1663334765400,0.59389627,0.9439881,-0.05932854
1531,1663334765401,0.59939384,0.9391013,-0.05505261
1532,1663334765404,0.606724,0.9311603,-0.050165832
1533,1663334765412,0.6128325,0.9207759,-0.0458899
1534,1663334765412,0.6183301,0.9103915,-0.04344651
1535,1663334765412,0.6232169,0.8987854,-0.038559735
1536,1663334765413,0.62871456,0.8853468,-0.033062108
1537,1663334765417,0.63176876,0.8700756,-0.02817533
1538,1663334765418,0.6378772,0.85602605,-0.023288552
1539,1663334765420,0.6415423,0.8395332,-0.016569233
1540,1663334765423,0.64337486,0.82120776,-0.011682454
1541,1663334765426,0.64398575,0.80227154,-0.0086282175
1542,1663334765432,0.6464291,0.77844846,-0.0037414394
1543,1663334765433,0.6464291,0.75462544,0.0005344914
1544,1663334765433,0.6464291,0.72774816,0.0041995747
1545,1663334765435,0.64337486,0.6990383,0.0066429637
1546,1663334765437,0.6378772,0.66971767,0.009086353
1547,1663334765439,0.6336013,0.63856447,0.012140589
1548,1663334765442,0.62871456,0.6037462,0.013362284
1549,1663334765443,0.618941,0.568317,0.013362284
1550,1663334765447,0.6097783,0.5304445,0.014583978
1551,1663334765450,0.59939384,0.4931828,0.015805673
1552,1663334765452,0.58595526,0.45225605,0.015194826
1553,1663334765454,0.57190573,0.41194013,0.015805673
1554,1663334765456,0.5554129,0.37101334,0.015194826
1555,1663334765459,0.53830916,0.32947573,0.013973131
1556,1663334765461,0.51754034,0.2848839,0.01641652
1557,1663334765464,0.4961607,0.24090289,0.017027367
1558,1663334765465,0.46989426,0.19875443,0.01641652
1559,1663334765469,0.44423866,0.15477343,0.017638214
1560,1663334765470,0.4161397,0.11140327,0.019470757
1561,1663334765473,0.38620818,0.0704765,0.022524992
1562,1663334765475,0.35444412,0.031382278,0.024968382
1563,1663334765477,0.32145837,-0.0077119465,0.029244313
1564,1663334765480,0.28419667,-0.045584477,0.035352785
1565,1663334765483,0.24754585,-0.08284616,0.04146126
1566,1663334765485,0.20784079,-0.1182753,0.048180576
1567,1663334765487,0.16630317,-0.15309359,0.054899897
1568,1663334765491,0.12354386,-0.18791188,0.06161922
1569,1663334765492,0.082006246,-0.22150849,0.071392775
1570,1663334765494,0.037414394,-0.25327253,0.07994463
1571,1663334765498,-0.005955761,-0.2813715,0.08788565
1572,1663334765499,-0.04871507,-0.3094705,0.09704836
1573,1663334765501,-0.09330692,-0.33573693,0.10437853
1574,1663334765504,-0.13545538,-0.3601708,0.11231954
1575,1663334765506,-0.17638214,-0.38277218,0.121482246
1576,1663334765510,-0.21547636,-0.40231928,0.12942326
1577,1663334765510,-0.25273806,-0.4218664,0.13614258
1578,1663334765513,-0.28877804,-0.43713757,0.14347275
1579,1663334765515,-0.32115296,-0.44935453,0.15141377
1580,1663334765519,-0.35352784,-0.4597389,0.15813309
1581,1663334765521,-0.38407022,-0.47012332,0.16301987
1582,1663334765525,-0.41339087,-0.47806433,0.16973919
1583,1663334765527,-0.4421007,-0.48417282,0.17584765
1584,1663334765529,-0.47203222,-0.49150297,0.18073443
1585,1663334765529,-0.5001312,-0.49516806,0.18562122
1586,1663334765533,-0.528841,-0.49944398,0.18928629
1587,1663334765535,-0.5587725,-0.5024982,0.19172968
1588,1663334765537,-0.5880932,-0.5018874,0.19783816
1589,1663334765539,-0.6180247,-0.50005484,0.20455748
1590,1663334765541,-0.6497888,-0.49883315,0.20883341
1591,1663334765543,-0.6803311,-0.49577892,0.21677442
1592,1663334765546,-0.71331686,-0.49394637,0.2228829
1593,1663334765549,-0.7432484,-0.49272466,0.22899136
1594,1663334765552,-0.7744016,-0.49211383,0.23632154
1595,1663334765554,-0.80433315,-0.49089214,0.2436517
1596,1663334765555,-0.83059955,-0.48967043,0.25098187
1597,1663334765558,-0.8556443,-0.4890596,0.25831205
1598,1663334765560,-0.8764131,-0.48722705,0.2644205
1599,1663334765564,-0.89657104,-0.48722705,0.27052897
1600,1663334765564,-0.9112314,-0.48478365,0.2760266
1601,1663334765566,-0.91978323,-0.48172942,0.27846998
1602,1663334765569,-0.92528087,-0.4774535,0.28091338
1603,1663334765572,-0.9277243,-0.47256672,0.2851893
1604,1663334765574,-0.92894596,-0.47073418,0.2851893
1605,1663334765576,-0.9240592,-0.46829078,0.28457847
1606,1663334765579,-0.91733986,-0.4646257,0.28457847
1607,1663334765582,-0.90573376,-0.4621823,0.2833568
1608,1663334765583,-0.892906,-0.46034977,0.27785915
1609,1663334765586,-0.87702394,-0.45790637,0.27052897
1610,1663334765589,-0.85747683,-0.45668468,0.26258796
1611,1663334765590,-0.83487546,-0.4542413,0.2540361
1612,1663334765593,-0.8092199,-0.45240876,0.2436517
1613,1663334765596,-0.7835643,-0.45057622,0.2308239
1614,1663334765597,-0.7548545,-0.4481328,0.21799612
1615,1663334765600,-0.7243121,-0.44691113,0.20394664
1616,1663334765604,-0.6919372,-0.44630027,0.18867545
1617,1663334765605,-0.65834063,-0.44752198,0.17035003
1618,1663334765606,-0.62352234,-0.44996536,0.15141377
1619,1663334765609,-0.5893149,-0.4530196,0.1312558
1620,1663334765615,-0.5532749,-0.45729554,0.11109784
1621,1663334765615,-0.5154024,-0.46096063,0.09216158
1622,1663334765617,-0.48058408,-0.46523654,0.07200362
1623,1663334765619,-0.4445441,-0.46890163,0.053067356
1624,1663334765621,-0.40789327,-0.47073418,0.035352785
1625,1663334765623,-0.37185326,-0.47256672,0.019470757
1626,1663334765625,-0.33642414,-0.471345,0.0041995747
1627,1663334765628,-0.30221668,-0.471345,-0.0086282175
1628,1663334765634,-0.26923093,-0.471345,-0.018401774
1629,1663334765634,-0.23624517,-0.47012332,-0.027564483
1630,1663334765636,-0.20325942,-0.47256672,-0.03672719
1631,1663334765639,-0.17149536,-0.47256672,-0.044057358
1632,1663334765640,-0.13728791,-0.47195587,-0.05077668
1633,1663334765642,-0.10552386,-0.46951246,-0.055663455
1634,1663334765645,-0.07070557,-0.46401486,-0.062382776
1635,1663334765648,-0.03466558,-0.45485213,-0.07154548
1636,1663334765650,0.0025961008,-0.44202435,-0.07765396
1637,1663334765652,0.039857782,-0.42492062,-0.085594974
1638,1663334765655,0.07956286,-0.40231928,-0.09475768
1639,1663334765657,0.11804623,-0.3742203,-0.10636378
1640,1663334765660,0.15530792,-0.34245625,-0.11858072
1641,1663334765662,0.19318044,-0.3082488,-0.13140851
1642,1663334765665,0.22922044,-0.27037627,-0.14179292
1643,1663334765667,0.26403874,-0.22883865,-0.15584241
1644,1663334765669,0.29641363,-0.18241426,-0.16805935
1645,1663334765671,0.32939938,-0.13415733,-0.1790546
1646,1663334765673,0.35749835,-0.08284616,-0.18882816
1647,1663334765676,0.3849865,-0.028480753,-0.19676918
1648,1663334765679,0.40819868,0.027106347,-0.2022668
1649,1663334765681,0.4301892,0.08269345,-0.20654273
1650,1663334765683,0.45034716,0.13828056,-0.20898612
1651,1663334765686,0.46745086,0.19203511,-0.2114295
1652,1663334765688,0.48272204,0.24578966,-0.21020782
1653,1663334765689,0.49738237,0.29954422,-0.20715357
1654,1663334765692,0.5126536,0.35085538,-0.20471019
1655,1663334765695,0.52670306,0.40155572,-0.20104511
1656,1663334765697,0.5425851,0.4516452,-0.19676918
1657,1663334765699,0.55785626,0.5035672,-0.19371493
1658,1663334765702,0.5737383,0.5536567,-0.18943901
1659,1663334765705,0.590842,0.6031353,-0.18699561
1660,1663334765706,0.60794574,0.6495597,-0.18394138
1661,1663334765709,0.6244386,0.6947624,-0.18149799
1662,1663334765711,0.6421532,0.7369109,-0.17966545
1663,1663334765713,0.6592569,0.77417254,-0.1778329
1664,1663334765716,0.67391723,0.8108234,-0.17600037
1665,1663334765718,0.6873559,0.8425874,-0.17538951
1666,1663334765721,0.6995728,0.8706864,-0.17172444
1667,1663334765722,0.7111789,0.896342,-0.16928105
1668,1663334765724,0.72156334,0.9165,-0.1674485
1669,1663334765728,0.7301152,0.93482536,-0.16439427
1670,1663334765730,0.73744535,0.9507074,-0.16134003
1671,1663334765733,0.7435538,0.9623135,-0.15889664
1672,1663334765734,0.74782974,0.97086537,-0.15645325
1673,1663334765738,0.75271654,0.97453046,-0.15278818
1674,1663334765741,0.75699246,0.97453046,-0.14973393
1675,1663334765742,0.75699246,0.96964365,-0.14851224
1676,1663334765745,0.7582142,0.964146,-0.14484715
1677,1663334765747,0.758825,0.9507074,-0.14118208
1678,1663334765750,0.7582142,0.93421453,-0.14179292
1679,1663334765751,0.75577074,0.9134457,-0.13873868
1680,1663334765754,0.75393826,0.888401,-0.13568445
1681,1663334765756,0.7496623,0.86335623,-0.13324106
1682,1663334765758,0.7466081,0.83342475,-0.13079767
1683,1663334765762,0.74233216,0.80166066,-0.13140851
1684,1663334765769,0.735002,0.7698966,-0.13140851
1685,1663334765769,0.7288935,0.73507833,-0.12835428
1686,1663334766287,-0.79944634,-0.66864866,0.31267744
1687,1663334766287,-0.77195823,-0.63321954,0.30901235
1688,1663334766287,-0.74630266,-0.6002338,0.30229303
1689,1663334766287,-0.72553384,-0.5721348,0.29313034
1690,1663334766287,-0.7108735,-0.5489226,0.28152424
1691,1663334766287,-0.6992674,-0.5336514,0.26869643
1692,1663334766287,-0.6919372,-0.5250996,0.2528144
1693,1663334766289,-0.68949383,-0.5189911,0.234489
1694,1663334766292,-0.6852179,-0.5134935,0.21616358
1695,1663334766295,-0.6833854,-0.5067741,0.198449
1696,1663334766297,-0.680942,-0.50066566,0.1789019
1697,1663334766300,-0.67544436,-0.49028128,0.16240901
1698,1663334766302,-0.668725,-0.47623178,0.14652699
1699,1663334766304,-0.6620057,-0.45851722,0.12759072
1700,1663334766307,-0.65223217,-0.4377484,0.108654454
1701,1663334766309,-0.6424586,-0.4145362,0.09155073
1702,1663334766311,-0.63146335,-0.38888064,0.07200362
1703,1663334766314,-0.6180247,-0.36200336,0.053678203
1704,1663334766317,-0.6064186,-0.33573693,0.034741938
1705,1663334766322,-0.5917583,-0.31008133,0.013362284
1706,1663334766323,-0.5777088,-0.2862583,-0.007406523
1707,1663334766323,-0.56549186,-0.2606027,-0.029397024
1708,1663334766328,-0.5477773,-0.23739052,-0.049554985
1709,1663334766328,-0.5276193,-0.21417832,-0.069712944
1710,1663334766331,-0.508683,-0.18974443,-0.091703445
1711,1663334766333,-0.48424917,-0.16714308,-0.10941801
1712,1663334766334,-0.4549285,-0.14332004,-0.1259109
1713,1663334766337,-0.42438614,-0.12071869,-0.14240377
1714,1663334766339,-0.39017868,-0.098117344,-0.15767495
1715,1663334766342,-0.35230616,-0.07734854,-0.17172444
1716,1663334766343,-0.31199023,-0.057190575,-0.18455222
1717,1663334766346,-0.2698418,-0.03642177,-0.19615832
1718,1663334766349,-0.22647162,-0.016263809,-0.20959696
1719,1663334766351,-0.18249062,0.0045049987,-0.21875967
1720,1663334766353,-0.13667707,0.024662958,-0.23036577
1721,1663334766355,-0.08903099,0.046042614,-0.23708509
1722,1663334766358,-0.044439137,0.06742226,-0.24441525
1723,1663334766360,0.0019852535,0.09185616,-0.24869119
1724,1663334766363,0.045966256,0.11629005,-0.25113457
1725,1663334766366,0.091168955,0.14255647,-0.25357798
1726,1663334766368,0.13453911,0.1700446,-0.25296712
1727,1663334766370,0.17668757,0.19631104,-0.25113457
1728,1663334766373,0.2170035,0.22074492,-0.24808034
1729,1663334766374,0.25793025,0.24395712,-0.24319357
1730,1663334766377,0.29763532,0.26655847,-0.23830679
1731,1663334766380,0.3324536,0.2848839,-0.23342001
1732,1663334766382,0.3660502,0.30198762,-0.22853324
1733,1663334766388,0.39781427,0.3184805,-0.22120306
1734,1663334766388,0.4301892,0.33497337,-0.21631628
1735,1663334766389,0.45950985,0.35146624,-0.21265121
1736,1663334766393,0.486998,0.36673743,-0.20837528
1737,1663334766395,0.5114319,0.38017607,-0.20409934
1738,1663334766397,0.53708744,0.39544725,-0.19982341
1739,1663334766400,0.55785626,0.40949672,-0.19615832
1740,1663334766402,0.57618165,0.42110282,-0.19310409
1741,1663334766402,0.5932854,0.43148723,-0.18821731
1742,1663334766405,0.60794574,0.44248247,-0.18516308
1743,1663334766408,0.62077355,0.4504235,-0.18088715
1744,1663334766411,0.6299362,0.45714283,-0.17600037
1745,1663334766413,0.6384881,0.46264043,-0.17172444
1746,1663334766415,0.6452074,0.46691638,-0.1662268
1747,1663334766417,0.6500942,0.47058147,-0.16134003
1748,1663334766419,0.65070504,0.4736357,-0.15584241
1749,1663334766422,0.65131587,0.4736357,-0.14973393
1750,1663334766432,0.6525376,0.47302485,-0.14423631
1751,1663334766432,0.6500942,0.472414,-0.13812783
1752,1663334766432,0.6488725,0.47058147,-0.13324106
1753,1663334766432,0.6445966,0.4675272,-0.12835428
1754,1663334766434,0.6409315,0.46019706,-0.122856654
1755,1663334766436,0.6378772,0.45408857,-0.11858072
1756,1663334766442,0.63237965,0.44675842,-0.114304796
1757,1663334766442,0.62749285,0.43820655,-0.110639706
1758,1663334766444,0.61955184,0.4272113,-0.107585475
1759,1663334766448,0.61466503,0.41560522,-0.104531236
1760,1663334766448,0.60794574,0.40338826,-0.100866154
1761,1663334766452,0.60000473,0.38750622,-0.09903361
1762,1663334766455,0.5896203,0.37345675,-0.09720107
1763,1663334766455,0.57984674,0.35818556,-0.09475768
1764,1663334766457,0.56885153,0.33924928,-0.091703445
1765,1663334766460,0.5554129,0.31909135,-0.091092594
1766,1663334766462,0.5401417,0.30137676,-0.09048175
1767,1663334766464,0.52548134,0.28060797,-0.08926006
1768,1663334766466,0.50715595,0.25922832,-0.08926006
1769,1663334766469,0.48760882,0.23784865,-0.08742751
1770,1663334766472,0.4656183,0.21585815,-0.08681667
1771,1663334766474,0.44362783,0.1932568,-0.08376243
1772,1663334766476,0.41797224,0.17187715,-0.08315159
1773,1663334766479,0.39109495,0.14866495,-0.082540736
1774,1663334766482,0.36360684,0.124841906,-0.08070819
1775,1663334766484,0.33550787,0.1040731,-0.07704311
1776,1663334766485,0.30679804,0.083915144,-0.07337803
1777,1663334766489,0.27564484,0.06436803,-0.069712944
1778,1663334766490,0.24388076,0.046042614,-0.066658705
1779,1663334766492,0.21028417,0.027717194,-0.061161082
1780,1663334766495,0.18035266,0.010613471,-0.055663455
1781,1663334766498,0.15103199,-0.004046863,-0.051387526
1782,1663334766500,0.12354386,-0.016263809,-0.044668205
1783,1663334766502,0.09666658,-0.026648212,-0.03978143
1784,1663334766505,0.07162184,-0.035200074,-0.033672955
1785,1663334766507,0.046577103,-0.04497363,-0.02817533
1786,1663334766510,0.020310672,-0.05413634,-0.023288552
1787,1663334766511,-0.004123219,-0.063909896,-0.018401774
1788,1663334766514,-0.029778805,-0.07490514,-0.014125843
1789,1663334766516,-0.056045234,-0.08651124,-0.011071607
1790,1663334766518,-0.07986828,-0.09872819,-0.0055739814
1791,1663334766523,-0.10552386,-0.110945135,-0.0019088977
1792,1663334766523,-0.12873606,-0.12255123,0.0011453386
1793,1663334766526,-0.15316994,-0.13293563,0.0060321167
1794,1663334766528,-0.17760384,-0.14454173,0.0096972
1795,1663334766535,-0.20142688,-0.15675868,0.015194826
1796,1663334766535,-0.22341739,-0.16775393,0.021303298
1797,1663334766535,-0.24662958,-0.17997088,0.025579229
1798,1663334766538,-0.2716743,-0.19340952,0.02985516
1799,1663334766540,-0.29183227,-0.2062373,0.034741938
1800,1663334766542,-0.3113794,-0.21845426,0.040850412
1801,1663334766545,-0.32787228,-0.23006035,0.04940227
1802,1663334766548,-0.3437543,-0.2410556,0.053678203
1803,1663334766552,-0.3578038,-0.24899662,0.057954133
1804,1663334766552,-0.3694099,-0.25754848,0.062230065
1805,1663334766554,-0.37979427,-0.2654895,0.06711684
1806,1663334766556,-0.39017868,-0.2746522,0.070781924
1807,1663334766559,-0.39995223,-0.28442577,0.07383616
1808,1663334766561,-0.40789327,-0.295421,0.0768904
1809,1663334766564,-0.41766682,-0.30641624,0.07872294
1810,1663334766566,-0.4280512,-0.31924406,0.08116633
1811,1663334766570,-0.4378248,-0.33329353,0.08238802
1812,1663334766571,-0.44820917,-0.3497864,0.08605311
1813,1663334766572,-0.4573719,-0.36627927,0.08971819
1814,1663334766575,-0.46958882,-0.383383,0.093383275
1815,1663334766578,-0.47997323,-0.40170842,0.0988809
1816,1663334766580,-0.49341187,-0.4243098,0.10498937
1817,1663334766585,-0.50685054,-0.44874367,0.11354123
1818,1663334766586,-0.5202891,-0.47439924,0.12026055
1819,1663334766588,-0.5349495,-0.5031091,0.12697987
1820,1663334766591,-0.54899895,-0.5330406,0.13553174
1821,1663334766592,-0.5624376,-0.56236124,0.14469445
1822,1663334766595,-0.5752654,-0.5898494,0.15141377
1823,1663334766598,-0.5862607,-0.61489415,0.16240901
1824,1663334766599,-0.5960342,-0.639328,0.17035003
1825,1663334766601,-0.60825115,-0.659486,0.17584765
1826,1663334766609,-0.6174139,-0.6778114,0.18317783
1827,1663334766609,-0.62474406,-0.6943043,0.18745375
1828,1663334766609,-0.63268507,-0.70713204,0.190508
1829,1663334766611,-0.63573927,-0.7175165,0.19295138
1830,1663334766613,-0.6375718,-0.72362494,0.19172968
1831,1663334766617,-0.636961,-0.7254575,0.19172968
1832,1663334766618,-0.6308525,-0.72362494,0.19295138
1833,1663334766621,-0.62474406,-0.7181273,0.18867545
1834,1663334766622,-0.61619216,-0.70835376,0.18195613
1835,1663334766625,-0.60458606,-0.6943043,0.17584765
1836,1663334766627,-0.5905366,-0.6741463,0.16668494
1837,1663334766630,-0.5752654,-0.65276664,0.154468
1838,1663334766632,-0.55755085,-0.62588936,0.13980767
1839,1663334766635,-0.536782,-0.5965687,0.12331479
1840,1663334766637,-0.5154024,-0.56358296,0.10804361
1841,1663334766639,-0.4909685,-0.52754295,0.08971819
1842,1663334766641,-0.46470204,-0.4890596,0.071392775
1843,1663334766644,-0.4341597,-0.44630027,0.054899897
1844,1663334766647,-0.40361732,-0.40231928,0.035963632
1845,1663334766650,-0.37246412,-0.35711658,0.01641652
1846,1663334766651,-0.33886752,-0.3070271,-0.0012980504
1847,1663334766654,-0.30404922,-0.2563268,-0.016569233
1848,1663334766656,-0.26678753,-0.20257223,-0.033062108
1849,1663334766658,-0.22586077,-0.14759597,-0.047111593
1850,1663334766660,-0.18920994,-0.09139802,-0.06421532
1851,1663334766663,-0.14950487,-0.03825431,-0.0794865
1852,1663334766665,-0.109188944,0.016721943,-0.09048175
1853,1663334766668,-0.069483876,0.06925481,-0.1026987
1854,1663334766671,-0.030389652,0.121787675,-0.11491564
1855,1663334766674,0.006872032,0.17248799,-0.12407835
1856,1663334766674,0.045966256,0.2189124,-0.13201937
1857,1663334766676,0.082006246,0.26472592,-0.13873868
1858,1663334766680,0.11804623,0.304431,-0.14240377
1859,1663334766681,0.15164283,0.34230354,-0.14729054
1860,1663334766684,0.18340689,0.37834352,-0.14973393
1861,1663334766687,0.2145601,0.4107184,-0.14973393
1862,1663334766690,0.24388076,0.43942824,-0.15095563
1863,1663334766691,0.2713689,0.4675272,-0.15034479
1864,1663334766694,0.29824618,0.49257195,-0.15156648
1865,1663334766697,0.32512346,0.5145625,-0.14973393
1866,1663334766702,0.3477248,0.53655297,-0.14973393
1867,1663334766702,0.37032616,0.55487835,-0.15217732
1868,1663334766703,0.39353836,0.57137126,-0.15156648
1869,1663334766705,0.41552883,0.58786416,-0.15156648
1870,1663334766709,0.4356868,0.6031353,-0.15034479
1871,1663334766710,0.45523393,0.6165739,-0.15156648
1872,1663334766713,0.47478104,0.6269584,-0.1546207
1873,1663334766715,0.49188477,0.6379536,-0.1546207
1874,1663334766717,0.5095993,0.6477272,-0.15584241
1875,1663334766721,0.5236488,0.6556682,-0.15767495
1876,1663334766722,0.5376983,0.6623875,-0.15889664
1877,1663334766724,0.5523586,0.6678851,-0.16072918
1878,1663334766727,0.5639647,0.67216104,-0.16439427
1879,1663334766729,0.5737383,0.67643696,-0.16561596
1880,1663334766731,0.5853444,0.68010205,-0.16561596
1881,1663334766733,0.5945071,0.68132377,-0.1662268
1882,1663334766736,0.6012264,0.68071294,-0.16561596
1883,1663334766738,0.606724,0.6782695,-0.16561596
1884,1663334766742,0.6103891,0.6746044,-0.16317257
1885,1663334766743,0.6152759,0.6666634,-0.16072918
1886,1663334766746,0.6164976,0.65750074,-0.1570641
1887,1663334766748,0.6177193,0.6471163,-0.15523157
1888,1663334766750,0.6183301,0.6355102,-0.15095563
1889,1663334766754,0.6164976,0.62268245,-0.14912309
1890,1663334766755,0.61588675,0.6086329,-0.14423631
1891,1663334766759,0.6128325,0.5921401,-0.14240377
1892,1663334766770,0.61099994,0.5744255,-0.13873868
1893,1663334766770,0.6073349,0.5561001,-0.13629529
1894,1663334766770,0.60305893,0.53655297,-0.13446276
1895,1663334766770,0.60000473,0.516395,-0.13140851
1896,1663334766770,0.59756136,0.49501535,-0.12835428
1897,1663334766771,0.59389627,0.4736357,-0.12652174
1898,1663334766774,0.59145284,0.45347774,-0.12407835
1899,1663334766791,0.5835118,0.41377267,-0.12163496
1900,1663334766791,0.5792359,0.39605808,-0.119802415
1901,1663334766791,0.57618165,0.37895438,-0.11919157
1902,1663334766791,0.5712949,0.36185065,-0.11858072
1903,1663334766791,0.5664081,0.34657946,-0.11858072
1904,1663334766792,0.562743,0.33375168,-0.11796988
1905,1663334766792,0.5560237,0.31909135,-0.11796988
1906,1663334766799,0.54991525,0.30504185,-0.11858072
1907,1663334766799,0.54502845,0.29099235,-0.11735903
1908,1663334766800,0.54075253,0.2757212,-0.11491564
1909,1663334766802,0.53403324,0.26350424,-0.11247225
1910,1663334766804,0.5273139,0.25128728,-0.11002886
1911,1663334766807,0.5205946,0.23784865,-0.10636378
1912,1663334766810,0.5132644,0.22502086,-0.101477005
1913,1663334766812,0.5047125,0.21280392,-0.09720107
1914,1663334766814,0.4961607,0.2024195,-0.091703445
1915,1663334766816,0.4833329,0.19020256,-0.08681667
1916,1663334766819,0.4729485,0.17981817,-0.08131904
1917,1663334766821,0.45950985,0.17065546,-0.07337803
1918,1663334766825,0.44118443,0.1596602,-0.06604786
1919,1663334766826,0.42346987,0.15171918,-0.058106847
1920,1663334766829,0.4008685,0.14438902,-0.048944138
1921,1663334766830,0.3776563,0.13705885,-0.041003123
1922,1663334766833,0.35261157,0.12850699,-0.03245126
1923,1663334766836,0.32512346,0.12239852,-0.02145601
1924,1663334766839,0.29519194,0.11384666,-0.0098499125
1925,1663334766842,0.2622062,0.10468395,0.0011453386
1926,1663334766844,0.2261662,0.096132085,0.012751437
1927,1663334766845,0.18951537,0.086969376,0.026800923
1928,1663334766846,0.15164283,0.07780667,0.04023956
1929,1663334766850,0.11071607,0.06620057,0.055510744
1930,1663334766854,0.07040015,0.05581617,0.06956023
1931,1663334766854,0.029473381,0.046042614,0.08605311
1932,1663334766856,-0.0132859275,0.033825666,0.10132429
1933,1663334766858,-0.058488626,0.022830416,0.11415208
1934,1663334766864,-0.10124794,0.01305686,0.12942326
1935,1663334766864,-0.14583978,0.0020616094,0.1416402
1936,1663334766867,-0.19043164,-0.0071010995,0.15263546
1937,1663334766869,-0.23685603,-0.011987877,0.16240901
1938,1663334766871,-0.27839363,-0.017485503,0.17096087
1939,1663334766875,-0.32115296,-0.021150587,0.1789019
1940,1663334766877,-0.36269057,-0.024204822,0.18562122
1941,1663334766879,-0.40300646,-0.026037365,0.190508
1942,1663334766881,-0.4421007,-0.026037365,0.19417307
1943,1663334766883,-0.47752985,-0.026037365,0.19783816
1944,1663334766885,-0.51112646,-0.025426516,0.1996707
1945,1663334766889,-0.5428905,-0.023593975,0.20150323
1946,1663334766891,-0.5709895,-0.018707197,0.20211409
1947,1663334766894,-0.5960342,-0.014431266,0.20333578
1948,1663334766894,-0.6192464,-0.009544488,0.20577917
1949,1663334766898,-0.6381827,-0.0046577104,0.20394664
1950,1663334766900,-0.6552864,-0.0009926268,0.20272493
1951,1663334766902,-0.673001,-0.0009926268,0.20089239
1952,1663334766904,-0.6876613,-0.0022143214,0.20089239
1953,1663334766907,-0.69865656,-0.005879405,0.20089239
1954,1663334766909,-0.70904094,-0.013820419,0.20089239
1955,1663334766911,-0.71820366,-0.022372281,0.20150323
1956,1663334766913,-0.7243121,-0.032756682,0.20394664
1957,1663334766915,-0.72492296,-0.04680617,0.20761171
1958,1663334766919,-0.7243121,-0.061466504,0.20944425
1959,1663334766921,-0.7194254,-0.076126836,0.21372019
1960,1663334766923,-0.7120952,-0.09139802,0.21677442
1961,1663334766925,-0.70109993,-0.10911259,0.22105035
1962,1663334766928,-0.68643963,-0.12560546,0.22471544
1963,1663334766930,-0.67055756,-0.14576343,0.22715883
1964,1663334766932,-0.6552864,-0.16653223,0.22899136
1965,1663334766936,-0.63573927,-0.18607935,0.22838052
1966,1663334766938,-0.6125271,-0.20501561,0.22960222
1967,1663334766940,-0.5893149,-0.22334103,0.22532628
1968,1663334766942,-0.5661027,-0.2398339,0.22105035
1969,1663334766945,-0.5398363,-0.25510508,0.21433103
1970,1663334766946,-0.512959,-0.26610035,0.20761171
1971,1663334766949,-0.48302746,-0.2770956,0.19722731
1972,1663334766952,-0.4512634,-0.28320405,0.18867545
1973,1663334766954,-0.41766682,-0.28809083,0.1776802
1974,1663334766956,-0.38345936,-0.28992337,0.16546325
1975,1663334766957,-0.34925193,-0.28870168,0.15202461
1976,1663334766960,-0.3126011,-0.2862583,0.14041851
1977,1663334766963,-0.2765611,-0.28259322,0.12636903
1978,1663334766965,-0.24235365,-0.27770644,0.11170869
1979,1663334766968,-0.20753536,-0.27037627,0.09399412
1980,1663334766971,-0.17332791,-0.26243526,0.07872294
1981,1663334766972,-0.1421747,-0.2538834,0.06161922
1982,1663334766975,-0.11163234,-0.24410984,0.043904647
1983,1663334766978,-0.08292252,-0.23311459,0.028022617
1984,1663334766979,-0.05482354,-0.22028679,0.010918895
1985,1663334766982,-0.027335415,-0.2062373,-0.004963134
1986,1663334766984,-0.00167983,-0.18974443,-0.018401774
1987,1663334766987,0.020921519,-0.17202985,-0.031840414
1988,1663334766989,0.044744562,-0.1518719,-0.044057358
1989,1663334766992,0.066124216,-0.13293563,-0.056274302
1990,1663334766994,0.08933641,-0.11155598,-0.066658705
1991,1663334766995,0.112548605,-0.088343784,-0.07521057
1992,1663334766998,0.13453911,-0.06696413,-0.082540736
1993,1663334767001,0.15530792,-0.04741702,-0.091703445
1994,1663334767003,0.17668757,-0.028480753,-0.09903361
1995,1663334767006,0.19806722,-0.009544488,-0.10392039
1996,1663334767008,0.22005773,0.0069483877,-0.11002886
1997,1663334767010,0.24082653,0.022830416,-0.11491564
1998,1663334767014,0.26098448,0.03993414,-0.12102412
1999,1663334767014,0.28358585,0.05581617,-0.1246892
2000,1663334767018,0.3049655,0.07353074,-0.12774344
2001,1663334767020,0.3281777,0.090634465,-0.1350736
2002,1663334767023,0.35322243,0.10895988,-0.13568445
2003,1663334767025,0.37643462,0.12972869,-0.14057122
2004,1663334767027,0.4008685,0.14866495,-0.145458
2005,1663334767029,0.42530242,0.16882291,-0.14912309
2006,1663334767031,0.45034716,0.18959172,-0.15339902
2007,1663334767034,0.47600272,0.21097137,-0.1570641
2008,1663334767036,0.5004366,0.22929679,-0.16072918
2009,1663334767039,0.5242597,0.24701136,-0.1662268
2010,1663334767041,0.5474719,0.26350424,-0.17172444
2011,1663334767044,0.5712949,0.27877542,-0.17538951
2012,1663334767045,0.5932854,0.2940466,-0.1790546
2013,1663334767052,0.61710846,0.30504185,-0.18210883
2014,1663334767052,0.6378772,0.3172588,-0.18638477
2015,1663334767054,0.6574244,0.32825404,-0.18760647
2016,1663334767056,0.6775823,0.33863845,-0.18943901
2017,1663334767058,0.6952969,0.34902287,-0.1906607
2018,1663334767059,0.7111789,0.35940725,-0.1918824
2019,1663334767062,0.72583926,0.36856997,-0.1918824
2020,1663334767064,0.7398887,0.37712184,-0.18882816
2021,1663334767070,0.74905145,0.38261944,-0.19004986
2022,1663334767070,0.7582142,0.3868954,-0.18760647
2023,1663334767072,0.76493347,0.38994962,-0.18394138
2024,1663334767077,0.76859856,0.3911713,-0.18333054
2025,1663334767077,0.7710419,0.39178216,-0.1802763
2026,1663334767079,0.7728745,0.38872793,-0.17661121
2027,1663334767081,0.77348536,0.3832303,-0.17172444
2028,1663334767085,0.7698203,0.37712184,-0.1698919
2029,1663334767086,0.76859856,0.3691808,-0.16500512
2030,1663334767088,0.766766,0.36062896,-0.15950748
2031,1663334767091,0.7624901,0.34902287,-0.15584241
2032,1663334767093,0.7576033,0.3368059,-0.14973393
2033,1663334767095,0.7514948,0.32214558,-0.14362547
2034,1663334767097,0.74538636,0.3068744,-0.13996038
2035,1663334767101,0.7380562,0.28854898,-0.13568445
2036,1663334767102,0.73072606,0.268391,-0.13201937
2037,1663334767105,0.722785,0.24884391,-0.12774344
2038,1663334767107,0.714844,0.22624256,-0.122856654
2039,1663334767109,0.7044596,0.2036412,-0.12224581
2040,1663334767112,0.69468606,0.17920731,-0.120413266
2041,1663334767114,0.6849125,0.15477343,-0.11919157
2042,1663334767116,0.67391723,0.12972869,-0.119802415
2043,1663334767119,0.6610894,0.10468395,-0.11796988
2044,1663334767122,0.64703995,0.08025006,-0.116748184
2045,1663334767124,0.6336013,0.055205323,-0.11613733
2046,1663334767126,0.61710846,0.029549737,-0.11491564
2047,1663334767128,0.598783,0.0045049987,-0.11491564
2048,1663334767130,0.58106846,-0.019318044,-0.113693945
2049,1663334767134,0.56152135,-0.04314109,-0.113693945
2050,1663334767135,0.5395308,-0.06452074,-0.11125056
2051,1663334767138,0.5157078,-0.085900396,-0.107585475
2052,1663334767141,0.4912739,-0.10483666,-0.10575293
2053,1663334767142,0.46684003,-0.11949699,-0.10330954
2054,1663334767145,0.43751934,-0.13476817,-0.09964446
2055,1663334767146,0.41003123,-0.14942852,-0.09475768
2056,1663334767150,0.37887803,-0.163478,-0.08926006
2057,1663334767154,0.34528142,-0.17630579,-0.085594974
2058,1663334767154,0.31107396,-0.18913358,-0.07887565
2059,1663334767157,0.27442312,-0.20318307,-0.07398888
2060,1663334767159,0.2377723,-0.21540001,-0.067269556
2061,1663334767162,0.19928892,-0.22761697,-0.061161082
2062,1663334767164,0.15836215,-0.23616882,-0.056274302
2063,1663334767166,0.11865708,-0.24594238,-0.05077668
2064,1663334767169,0.074676074,-0.25144,-0.044668205
2065,1663334767171,0.03130592,-0.2563268,-0.037338037
2066,1663334767174,-0.014507622,-0.2563268,-0.028786177
2067,1663334767176,-0.06215371,-0.25571594,-0.023288552
2068,1663334767178,-0.11102149,-0.25205085,-0.016569233
2069,1663334767180,-0.15866758,-0.24594238,-0.0055739814
2070,1663334767183,-0.2093679,-0.23677967,0.0017561859
2071,1663334767186,-0.25945738,-0.22700611,0.009086353
2072,1663334767188,-0.3077143,-0.21601087,0.019470757
2073,1663334767190,-0.35352784,-0.20440477,0.031076854
2074,1663334767193,-0.39873055,-0.19218782,0.039628714
2075,1663334767194,-0.4384356,-0.17997088,0.05062397
2076,1663334767197,-0.47630814,-0.16775393,0.06100837
2077,1663334767199,-0.51356983,-0.1543153,0.06894939
2078,1663334767202,-0.54533386,-0.1414875,0.0768904
2079,1663334767205,-0.57587624,-0.12804885,0.08238802
2080,1663334767207,-0.60397524,-0.11644276,0.087274805
2081,1663334767209,-0.6332959,-0.10544751,0.092772424
2082,1663334767212,-0.65956235,-0.095063105,0.09827005
2083,1663334767213,-0.6839962,-0.08406785,0.102545984
2084,1663334767216,-0.7078193,-0.07673769,0.10682192
2085,1663334767218,-0.7310315,-0.06818583,0.11231954
2086,1663334767220,-0.7542437,-0.06207735,0.115373775
2087,1663334767223,-0.77256906,-0.061466504,0.1208714
2088,1663334767226,-0.78906196,-0.063299045,0.12942326
2089,1663334767227,-0.80860907,-0.06757498,0.13431004
2090,1663334767230,-0.8263236,-0.0742943,0.14102936
2091,1663334767233,-0.84281653,-0.085289545,0.14774868
2092,1663334767235,-0.85503346,-0.098117344,0.15385716
2093,1663334767237,-0.8678613,-0.11155598,0.15996562
2094,1663334767240,-0.87946737,-0.12621632,0.1660741
2095,1663334767242,-0.8880192,-0.14393088,0.17157172
2096,1663334767244,-0.89351684,-0.163478,0.1789019
2097,1663334767247,-0.89779276,-0.18607935,0.18195613
2098,1663334767249,-0.89657104,-0.20990239,0.18745375
2099,1663334767251,-0.89412767,-0.23555797,0.19234054
2100,1663334767254,-0.8880192,-0.2618244,0.19722731
2101,1663334767256,-0.88129985,-0.29053423,0.20211409
2102,1663334767259,-0.86969376,-0.3210766,0.20883341
2103,1663334767260,-0.85381174,-0.35284066,0.21249849
2104,1663334767263,-0.83548635,-0.38826978,0.21555273
2105,1663334767266,-0.8141067,-0.4218664,0.21677442
2106,1663334767268,-0.7872294,-0.45363045,0.2192178
2107,1663334767270,-0.7585196,-0.48417282,0.2192178
2108,1663334767293,-0.6882722,-0.53609484,0.21494187
2109,1663334767293,-0.6485671,-0.55564195,0.21066594
2110,1663334767293,-0.6076403,-0.57396734,0.20639002
2111,1663334767293,-0.564881,-0.58801687,0.1996707
2112,1663334767293,-0.52212167,-0.5977904,0.19356222
2113,1663334767293,-0.4793624,-0.6045097,0.18195613
2114,1663334767294,-0.43904647,-0.607564,0.17279342
2115,1663334767294,-0.39873055,-0.6087856,0.16057648
2116,1663334767294,-0.36024716,-0.6057314,0.14897038
2117,1663334767296,-0.32542887,-0.6002338,0.1349209
2118,1663334767299,-0.29183227,-0.5922928,0.121482246
2119,1663334767303,-0.26067907,-0.57885414,0.109265305
2120,1663334767303,-0.2325801,-0.56358296,0.09582666
2121,1663334767306,-0.20325942,-0.54342496,0.084220566
2122,1663334767310,-0.17943639,-0.52082366,0.07017108
2123,1663334767310,-0.15500249,-0.49272466,0.059175827
2124,1663334767314,-0.133012,-0.4597389,0.050013117
2125,1663334767316,-0.11102149,-0.42308807,0.03657448
2126,1663334767318,-0.08903099,-0.38216132,0.024357535
2127,1663334767320,-0.06765133,-0.33512607,0.010918895
2128,1663334767323,-0.04566083,-0.28564745,-0.0037414394
2129,1663334767326,-0.025502874,-0.23250374,-0.018401774
2130,1663334767326,-0.004123219,-0.17264071,-0.033672955
2131,1663334767330,0.017256435,-0.11277767,-0.05077668
2132,1663334767332,0.03863609,-0.048027866,-0.067269556
2133,1663334767334,0.06001574,0.016111096,-0.08498412
2134,1663334767337,0.08078455,0.07963921,-0.100866154
2135,1663334767340,0.10277505,0.14316733,-0.116748184
2136,1663334767341,0.12476555,0.2036412,-0.13140851
2137,1663334767344,0.14431266,0.26228255,-0.14179292
2138,1663334767345,0.16385978,0.3172588,-0.15523157
2139,1663334767350,0.18585028,0.36734828,-0.16317257
2140,1663334767352,0.20295401,0.4131618,-0.17172444
2141,1663334767354,0.22127941,0.45469943,-0.1778329
2142,1663334767356,0.24143738,0.48951772,-0.18455222
2143,1663334767357,0.25670856,0.5218926,-0.19004986
2144,1663334767361,0.27625567,0.54815906,-0.19310409
2145,1663334767363,0.2933594,0.57014954,-0.19615832
2146,1663334767365,0.31046313,0.5872533,-0.19921257
2147,1663334767367,0.3281777,0.60130274,-0.19860171
2148,1663334767370,0.3440597,0.6116872,-0.20593189
2149,1663334767373,0.36116344,0.61779565,-0.20715357
2150,1663334767375,0.37826717,0.6239041,-0.20715357
2151,1663334767375,0.39476004,0.6263475,-0.20776442
2152,1663334767378,0.41064206,0.6251258,-0.20776442
2153,1663334767383,0.4265241,0.6208499,-0.20837528
2154,1663334767385,0.44118443,0.61290884,-0.20776442
2155,1663334767386,0.45462307,0.6000811,-0.20715357
2156,1663334767389,0.46806172,0.5841991,-0.20593189
2157,1663334767392,0.48150036,0.5658736,-0.20471019
2158,1663334767393,0.49371728,0.5463265,-0.20287764
2159,1663334767395,0.5053234,0.52494687,-0.20287764
2160,1663334767399,0.5157078,0.50417805,-0.20104511
2161,1663334767400,0.5273139,0.48340926,-0.19738002
2162,1663334767403,0.5364766,0.46264043,-0.19493663
2163,1663334767405,0.54625016,0.44064993,-0.19310409
2164,1663334767409,0.5541912,0.41988114,-0.19004986
2165,1663334767410,0.5596888,0.39972317,-0.18699561
2166,1663334767411,0.567019,0.37773266,-0.18455222
2167,1663334767415,0.5712949,0.35818556,-0.17966545
2168,1663334767417,0.57434916,0.3380276,-0.1778329
2169,1663334767428,0.57618165,0.31909135,-0.17538951
2170,1663334767428,0.57740337,0.30137676,-0.1711136
2171,1663334767428,0.57740337,0.28549474,-0.16805935
2172,1663334767428,0.57740337,0.2696127,-0.16500512
2173,1663334767429,0.57679254,0.25678492,-0.16072918
2174,1663334767431,0.57434916,0.24578966,-0.15645325
2175,1663334767433,0.5712949,0.23662695,-0.15339902
2176,1663334767436,0.5676298,0.22746424,-0.14790139
2177,1663334767438,0.5633539,0.22013408,-0.14240377
2178,1663334767440,0.559078,0.21341476,-0.13690615
2179,1663334767442,0.5541912,0.20791714,-0.13324106
2180,1663334767445,0.546861,0.2024195,-0.12713258
2181,1663334767448,0.5401417,0.19753273,-0.120413266
2182,1663334767450,0.530979,0.19020256,-0.11552649
2183,1663334767452,0.52242714,0.18409409,-0.10880717
2184,1663334767456,0.5114319,0.17798562,-0.10392039
2185,1663334767464,0.49921492,0.17309885,-0.09720107
2186,1663334767464,0.48821968,0.16699037,-0.091092594
2187,1663334767464,0.47417018,0.1621036,-0.08437328
2188,1663334767464,0.45706648,0.1584385,-0.08192989
2189,1663334767467,0.4393519,0.15294088,-0.07765396
2190,1663334767469,0.42041564,0.1492758,-0.07154548
2191,1663334767477,0.39903596,0.14499986,-0.06543701
2192,1663334767478,0.3776563,0.14133479,-0.05993939
2193,1663334767478,0.35200074,0.13828056,-0.05505261
2194,1663334767478,0.32634515,0.13278292,-0.04833329
2195,1663334767481,0.29885703,0.12789614,-0.04161397
2196,1663334767483,0.26892552,0.121787675,-0.036116343
2197,1663334767485,0.23838314,0.112624966,-0.026953636
2198,1663334767487,0.20600824,0.105294794,-0.019623468
2199,1663334767490,0.17302248,0.09735378,-0.0104607595
2200,1663334767492,0.13881505,0.08635853,-0.004352287
2201,1663334767496,0.10460759,0.07780667,0.0029778804
2202,1663334767496,0.069178455,0.06742226,0.010308048
2203,1663334767499,0.033138465,0.057037864,0.01641652
2204,1663334767501,-0.0035123718,0.04665346,0.024968382
2205,1663334767506,-0.040774055,0.03749075,0.030466007
2206,1663334767506,-0.078646585,0.028328042,0.03657448
2207,1663334767509,-0.115908265,0.019165333,0.04146126
2208,1663334767510,-0.1537808,0.010002624,0.04573719
2209,1663334767513,-0.19409671,0.000839915,0.04940227
2210,1663334767525,-0.2313584,-0.0071010995,0.053067356
2211,1663334767525,-0.2698418,-0.012598725,0.055510744
2212,1663334767525,-0.3101577,-0.01809635,0.057343286
2213,1663334767525,-0.34558684,-0.021761434,0.059786674
2214,1663334767525,-0.38407022,-0.023593975,0.059786674
2215,1663334767527,-0.41827765,-0.02481567,0.06284091
2216,1663334767530,-0.44943088,-0.022372281,0.06467345
2217,1663334767532,-0.4811949,-0.019318044,0.066506
2218,1663334767535,-0.5117373,-0.016263809,0.06711684
2219,1663334767538,-0.54227966,-0.01137703,0.068338536
2220,1663334767540,-0.5716003,-0.004046863,0.06894939
2221,1663334767542,-0.59908843,0.000839915,0.07017108
2222,1663334767543,-0.62840915,0.0075592347,0.07017108
2223,1663334767546,-0.65895146,0.011835165,0.06894939
2224,1663334767549,-0.6876613,0.014889402,0.068338536
2225,1663334767551,-0.71759284,0.014278554,0.066506
2226,1663334767557,-0.7475243,0.010002624,0.065284304
2227,1663334767558,-0.77623415,0.0026724567,0.06161922
2228,1663334767559,-0.8025006,-0.003436016,0.05673244
2229,1663334767560,-0.8263236,-0.008933641,0.051845662
2230,1663334767562,-0.85014665,-0.012598725,0.04756973
2231,1663334767565,-0.8684721,-0.016874656,0.04512634
2232,1663334767567,-0.88557583,-0.020539738,0.040850412
2233,1663334767571,-0.8996253,-0.025426516,0.03840702
2234,1663334767572,-0.9075663,-0.030924143,0.039628714
2235,1663334767575,-0.9136748,-0.041308545,0.03840702
2236,1663334767577,-0.91978323,-0.05596888,0.037796173
2237,1663334767580,-0.9216158,-0.07490514,0.039017867
2238,1663334767582,-0.92100495,-0.10056073,0.039017867
2239,1663334767585,-0.91733986,-0.13293563,0.040850412
2240,1663334767587,-0.91306394,-0.16897562,0.04512634
2241,1663334767589,-0.9039012,-0.207459,0.048180576
2242,1663334767591,-0.88985175,-0.24716407,0.054899897
2243,1663334767594,-0.872748,-0.28686914,0.060397524
2244,1663334767596,-0.85075754,-0.32840675,0.06894939
2245,1663334767598,-0.8244911,-0.36994436,0.07933379
2246,1663334767600,-0.79639214,-0.4127037,0.092772424
2247,1663334767613,-0.7670714,-0.4542413,0.10193513
2248,1663334767613,-0.7353074,-0.49089214,0.11293039
2249,1663334767613,-0.70232165,-0.5250996,0.12026055
2250,1663334767614,-0.6693359,-0.5538094,0.13247749
2251,1663334767614,-0.6345176,-0.5782433,0.13919681
2252,1663334767614,-0.600921,-0.59840125,0.14835952
2253,1663334767616,-0.5667136,-0.61428326,0.15752223
2254,1663334767621,-0.53433865,-0.62833273,0.16424155
2255,1663334767623,-0.500742,-0.63749546,0.16851749
2256,1663334767625,-0.468978,-0.6436039,0.17218257
2257,1663334767626,-0.43660307,-0.6436039,0.1776802
