,timestamp,gyro_x,gyro_y,gyro_z
0,1663314880462,1.2520841,-1.3299671,1.145186
1,1663314880462,1.2471974,-1.3983821,1.1500727
2,1663314880462,1.244754,-1.4643536,1.1464076
3,1663314880463,1.2496408,-1.5181081,1.1378558
4,1663314880463,1.2435323,-1.5584241,1.1305256
5,1663314880464,1.2410889,-1.5889665,1.1183087
6,1663314880465,1.2386456,-1.6024051,1.108535
7,1663314880469,1.2423106,-1.6097353,1.1012049
8,1663314880469,1.2423106,-1.6011834,1.0902096
9,1663314880474,1.244754,-1.582858,1.0804361
10,1663314880474,1.2410889,-1.5559807,1.0633323
11,1663314880479,1.2435323,-1.5242167,1.0486721
12,1663314880479,1.2423106,-1.5010045,1.0340117
13,1663314880484,1.2362021,-1.4790139,1.0144646
14,1663314880484,1.2374238,-1.4802356,0.9924741
15,1663314880488,1.2313154,-1.4765705,0.9778137
16,1663314880489,1.2252069,-1.4875658,0.9582666
17,1663314880494,1.2252069,-1.5010045,0.9436063
18,1663314880494,1.2215418,-1.5156648,0.9265026
19,1663314880499,1.2032164,-1.5437638,0.9069555
20,1663314880499,1.1934428,-1.5730844,0.8947385
21,1663314880505,1.1763391,-1.6048485,0.8776348
22,1663314880505,1.1616788,-1.630504,0.8678613
23,1663314880509,1.1543486,-1.6561596,0.85075754
24,1663314880509,1.1335799,-1.6744851,0.840984
25,1663314880534,1.1067026,-1.6793718,0.8336538
26,1663314880534,1.0920422,-1.6915888,0.82388026
27,1663314880534,1.0712733,-1.7013624,0.812885
28,1663314880534,1.0480611,-1.7099142,0.80066806
29,1663314880534,1.0236273,-1.7123575,0.7872294
30,1663314880534,0.99552834,-1.7062491,0.78478605
31,1663314880534,0.96865106,-1.6964755,0.7737908
32,1663314880534,0.9417738,-1.6830369,0.7591304
33,1663314880534,0.9136748,-1.67082,0.7481352
34,1663314880534,0.9002361,-1.6524945,0.7383616
35,1663314880547,0.87335885,-1.6329474,0.72980976
36,1663314880547,0.85503346,-1.614622,0.7212579
37,1663314880547,0.8293779,-1.5889665,0.71026266
38,1663314880547,0.8061657,-1.5681976,0.696824
39,1663314880553,0.78661853,-1.5462071,0.67483354
40,1663314880553,0.7621847,-1.5242167,0.6577298
41,1663314880572,0.7365291,-1.5010045,0.63940436
42,1663314880576,0.72064704,-1.4814574,0.6149705
43,1663314880578,0.69499147,-1.4545801,0.59542334
44,1663314880580,0.67544436,-1.4362546,0.57831967
45,1663314880580,0.6571189,-1.4118208,0.5599942
46,1663314880580,0.6461237,-1.3898302,0.54166883
47,1663314880580,0.63268507,-1.3617313,0.52578676
48,1663314880581,0.6192464,-1.334854,0.5160132
49,1663314880582,0.60825115,-1.3165286,0.5013529
50,1663314880582,0.5996993,-1.3006465,0.48913595
51,1663314880582,0.5911474,-1.2774343,0.476919
52,1663314880582,0.5825956,-1.262774,0.46714544
53,1663314880582,0.5789305,-1.2420052,0.46348035
54,1663314880583,0.5716003,-1.2249014,0.4549285
55,1663314880588,0.5667136,-1.2041327,0.44637662
56,1663314880588,0.56060505,-1.1796988,0.44637662
57,1663314880592,0.55693996,-1.1515998,0.44393325
58,1663314880593,0.5471664,-1.1247225,0.44271156
59,1663314880597,0.5398363,-1.1002886,0.44148985
60,1663314880597,0.528841,-1.0758548,0.44148985
61,1663314880602,0.51784575,-1.0501992,0.44148985
62,1663314880602,0.5056288,-1.0282086,0.44515494
63,1663314880607,0.48974678,-1.0025531,0.44271156
64,1663314880607,0.47508645,-0.9781192,0.44759834
65,1663314880612,0.46042612,-0.95246357,0.44515494
66,1663314880612,0.4433224,-0.9304731,0.44271156
67,1663314880618,0.43110546,-0.9072609,0.44271156
68,1663314880618,0.41522342,-0.8877138,0.4378248
69,1663314880622,0.3981197,-0.86694497,0.4304946
70,1663314880622,0.38712445,-0.84617615,0.42438614
71,1663314880627,0.37002072,-0.8290724,0.4121692
72,1663314880627,0.35658208,-0.80830365,0.39995223
73,1663314880632,0.34436515,-0.7911999,0.3865136
74,1663314880632,0.3284831,-0.7692094,0.3694099
75,1663314880638,0.31870955,-0.7484406,0.35230616
76,1663314880638,0.3052709,-0.7313369,0.33275905
77,1663314880642,0.2893889,-0.71667653,0.30954686
78,1663314880642,0.27595025,-0.6959077,0.29122144
79,1663314880647,0.2637333,-0.67513895,0.27045262
80,1663314880647,0.25029466,-0.64826167,0.24479704
81,1663314880652,0.23563433,-0.6299362,0.22524993
82,1663314880652,0.22586077,-0.60794574,0.20692451
83,1663314880658,0.20875706,-0.58473355,0.18371232
84,1663314880658,0.19409671,-0.562743,0.16660859
85,1663314880662,0.18432316,-0.546861,0.15316994
86,1663314880662,0.17088452,-0.52975726,0.13484453
87,1663314880667,0.15744588,-0.51509696,0.12140589
88,1663314880667,0.14645062,-0.50654507,0.109188944
89,1663314880672,0.13667707,-0.5041017,0.0981937
90,1663314880672,0.12323844,-0.5004366,0.08964183
91,1663314880677,0.1085781,-0.5004366,0.07986828
92,1663314880677,0.09513946,-0.5004366,0.07375981
93,1663314880682,0.08414421,-0.50288,0.06520794
94,1663314880682,0.069483876,-0.5126536,0.059099473
95,1663314880686,0.057266932,-0.5236488,0.054212693
96,1663314880687,0.042606596,-0.53464407,0.04566083
97,1663314880691,0.029167956,-0.5493044,0.040774055
98,1663314880691,0.014507622,-0.5554129,0.03466558
99,1663314880696,-0.00015271181,-0.5664081,0.031000499
100,1663314880696,-0.011147963,-0.5786251,0.028557109
101,1663314880701,-0.024586603,-0.5896203,0.022448637
102,1663314880701,-0.035581853,-0.5969505,0.018783553
103,1663314880706,-0.047798797,-0.6018373,0.0151184695
104,1663314880706,-0.05635066,-0.61161083,0.013896775
105,1663314880711,-0.06734591,-0.6103891,0.013896775
106,1663314880711,-0.07834116,-0.6140542,0.01267508
107,1663314880716,-0.08689302,-0.618941,0.013896775
108,1663314880716,-0.09300149,-0.62382776,0.020005248
109,1663314880721,-0.103996746,-0.63115793,0.021226943
110,1663314880721,-0.11132691,-0.6372664,0.031000499
111,1663314880725,-0.11987878,-0.6531484,0.037108973
112,1663314880725,-0.12598725,-0.6653654,0.04199575
113,1663314880731,-0.13331741,-0.67880404,0.049325917
114,1663314880731,-0.1369825,-0.68979925,0.05787778
115,1663314880736,-0.13942589,-0.6995728,0.06520794
116,1663314880736,-0.14186928,-0.706903,0.07742489
117,1663314880740,-0.14064758,-0.7105681,0.08964183
118,1663314880741,-0.1357608,-0.7117898,0.10430217
119,1663314880746,-0.12843063,-0.71301144,0.1201842
120,1663314880746,-0.12476555,-0.7081247,0.13117945
121,1663314880751,-0.11743539,-0.69835114,0.14950487
122,1663314880752,-0.103996746,-0.69346434,0.17027368
123,1663314880756,-0.0917798,-0.6849125,0.18982078
124,1663314880757,-0.07834116,-0.6763606,0.2093679
125,1663314880761,-0.06490252,-0.6641437,0.228915
126,1663314880761,-0.057572354,-0.65192676,0.24846213
127,1663314880766,-0.050242186,-0.6360447,0.26556584
128,1663314880766,-0.044133715,-0.6250495,0.28755635
129,1663314880770,-0.04535541,-0.60305893,0.30221668
130,1663314880771,-0.04535541,-0.58595526,0.3205421
131,1663314880776,-0.047798797,-0.5664081,0.3425326
132,1663314880776,-0.05390727,-0.5431959,0.35719293
133,1663314880780,-0.06368083,-0.5212054,0.37307495
134,1663314880780,-0.072232686,-0.5016583,0.3852919
135,1663314880785,-0.08078455,-0.47844613,0.39384377
136,1663314880785,-0.08567133,-0.4601207,0.404839
137,1663314880790,-0.09300149,-0.4393519,0.4109475
138,1663314880790,-0.097888276,-0.42591324,0.41949937
139,1663314880796,-0.10277505,-0.40758783,0.42316443
140,1663314880796,-0.103996746,-0.3965926,0.42194274
141,1663314880800,-0.103996746,-0.3892624,0.4280512
142,1663314880800,-0.09666658,-0.38559732,0.42682952
143,1663314880805,-0.09666658,-0.38437563,0.42560783
144,1663314880805,-0.090558104,-0.38315395,0.42927292
145,1663314880810,-0.08078455,-0.38804072,0.4304946
146,1663314880812,-0.074676074,-0.39048412,0.432938
147,1663314880816,-0.06490252,-0.39048412,0.43904647
148,1663314880816,-0.058794048,-0.3965926,0.44148985
149,1663314880820,-0.052685577,-0.39781427,0.44637662
150,1663314880821,-0.047798797,-0.40025768,0.4549285
151,1663314880825,-0.039246935,-0.40636614,0.46103698
152,1663314880825,-0.036803547,-0.41125292,0.46836713
153,1663314880830,-0.036803547,-0.41736138,0.4756973
154,1663314880830,-0.039246935,-0.42591324,0.48058408
155,1663314880835,-0.03802524,-0.4344651,0.49035764
156,1663314880835,-0.046577103,-0.44423866,0.4964661
157,1663314880840,-0.057572354,-0.458899,0.4964661
158,1663314880840,-0.06368083,-0.47600272,0.5013529
159,1663314880844,-0.07345438,-0.5004366,0.5013529
160,1663314880845,-0.082006246,-0.5199837,0.50623965
161,1663314880850,-0.09422319,-0.54563934,0.505018
162,1663314880850,-0.106440134,-0.56885153,0.50746137
163,1663314880855,-0.12354386,-0.590842,0.505018
164,1663314880856,-0.13942589,-0.6164976,0.50257456
165,1663314880859,-0.15408622,-0.6421532,0.4989095
166,1663314880860,-0.16508147,-0.67147386,0.4952444
167,1663314880865,-0.17729841,-0.7007945,0.49157932
168,1663314880865,-0.18707198,-0.7276718,0.48669255
169,1663314880870,-0.19440214,-0.7545491,0.476919
170,1663314880870,-0.2005106,-0.77898294,0.46958882
171,1663314880875,-0.20784079,-0.7973084,0.46225867
172,1663314880875,-0.21639264,-0.810747,0.4500417
173,1663314880879,-0.22005773,-0.82418567,0.44026816
174,1663314880880,-0.22250111,-0.8290724,0.4304946
175,1663314880884,-0.22372282,-0.82785076,0.41705596
176,1663314880884,-0.22860959,-0.8144121,0.40606073
177,1663314880890,-0.22983128,-0.7973084,0.39140037
178,1663314880890,-0.2249445,-0.7740962,0.38407022
179,1663314880895,-0.22250111,-0.7435538,0.37429667
180,1663314880895,-0.22372282,-0.706903,0.35963634
181,1663314880899,-0.21761434,-0.66658705,0.35474956
182,1663314880899,-0.22250111,-0.62749285,0.33764583
183,1663314880905,-0.22005773,-0.590842,0.33031565
184,1663314880905,-0.22005773,-0.5493044,0.32665056
185,1663314880909,-0.22372282,-0.51021016,0.31199023
186,1663314880909,-0.23716144,-0.47111595,0.2973299
187,1663314880915,-0.24449162,-0.42469156,0.28755635
188,1663314880915,-0.25915194,-0.38071054,0.26923093
189,1663314880919,-0.26892552,-0.3477248,0.2533489
190,1663314880919,-0.27992076,-0.31596074,0.23746687
191,1663314880924,-0.2896943,-0.2817533,0.21791977
192,1663314880924,-0.30068958,-0.24632415,0.19592926
193,1663314880929,-0.3129065,-0.20845163,0.17149536
194,1663314880929,-0.32145837,-0.17790927,0.1446181
195,1663314880934,-0.32878855,-0.13759334,0.12140589
196,1663314880935,-0.33734038,-0.107050985,0.09575031
197,1663314880939,-0.3556658,-0.07406523,0.06765133
198,1663314880939,-0.37521294,-0.041079476,0.043217443
199,1663314880943,-0.4008685,-0.008093726,0.016340164
200,1663314880944,-0.43629766,0.021226943,-0.009315421
