,timestamp,acc_x,acc_y,acc_z
0,1663243311614,-1.1030912,4.19731,8.92792
1,1663243311614,-1.023829,4.2595234,8.9159565
2,1663243311614,-0.97836536,4.3005004,8.882457
3,1663243311614,-0.8682955,4.3531427,8.860921
4,1663243311614,-0.8324032,4.434499,8.892028
5,1663243311614,-0.7797611,4.4656053,8.918349
6,1663243311614,-0.7175477,4.511069,8.9470625
7,1663243311614,-0.686441,4.5397825,8.973384
8,1663243311614,-0.63858455,4.5708895,9.009576
9,1663243311614,-0.6122635,4.592425,9.023932
10,1663243311615,-0.5835496,4.616353,9.023932
11,1663243311615,-0.5691927,4.6378884,9.04786
12,1663243311615,-0.5285147,4.6522455,9.04786
13,1663243311615,-0.4636094,4.671388,9.052647
14,1663243311615,-0.46121657,4.6881375,9.067003
15,1663243311615,-0.42053857,4.6642094,9.062218
16,1663243311615,-0.44207397,4.64746,9.045467
17,1663243311615,-0.42053857,4.659424,9.062218
18,1663243311615,-0.401396,4.6259246,9.0646105
19,1663243311615,-0.37746778,4.6139603,9.090932
20,1663243311615,-0.35832518,4.618746,9.117252
21,1663243311615,-0.34396824,4.618746,9.155538
22,1663243311615,-0.34157544,4.616353,9.19143
23,1663243311615,-0.34636107,4.592425,9.198608
24,1663243311615,-0.3367898,4.5708895,9.258429
25,1663243311615,-0.34157544,4.5134616,9.303893
26,1663243311615,-0.3702893,4.4751763,9.330214
27,1663243311615,-0.39421752,4.4464626,9.330214
28,1663243311615,-0.43968117,4.3986063,9.332606
29,1663243311615,-0.48753762,4.3722854,9.368499
30,1663243311616,-0.53569317,4.3674994,9.34457
31,1663243311616,-0.5907281,4.360321,9.339785
32,1663243311616,-0.63858455,4.3651066,9.313464
33,1663243311616,-0.69122666,4.362714,9.308679
34,1663243311616,-0.7103692,4.336393,9.275179
35,1663243311616,-0.6936195,4.302893,9.189037
36,1663243311616,-0.6433702,4.2690945,9.086145
37,1663243311616,-0.63140607,4.247559,8.949456
38,1663243311616,-0.63140607,4.2188454,8.836993
39,1663243311616,-0.63140607,4.21406,8.64796
40,1663243311616,-0.64576304,4.2188454,8.4347
41,1663243311616,-0.6936195,4.2451663,8.250452
42,1663243311616,-0.75583285,4.2451663,8.01117
43,1663243311616,-0.8180462,4.281059,7.8050885
44,1663243311616,-0.86111706,4.281059,7.6256266
45,1663243311616,-0.91136634,4.343571,7.472486
46,1663243311616,-0.99990076,4.3651066,7.3576307
47,1663243311616,-1.0719845,4.3794637,7.299904
48,1663243311620,-1.1533405,4.3962135,7.2975106
49,1663243311620,-1.2562319,4.4225345,7.326524
50,1663243311624,-1.3926228,4.470391,7.379166
51,1663243311624,-1.5122639,4.5038905,7.446165
52,1663243311630,-1.605584,4.523033,7.513164
53,1663243311630,-1.6800606,4.5613184,7.6136627
54,1663243311634,-1.7781663,4.5852466,7.647162
55,1663243311634,-1.8834505,4.604389,7.675876
56,1663243311639,-1.9935204,4.6283174,7.70459
57,1663243311639,-2.0916262,4.6354957,7.752446
58,1663243311644,-2.1777678,4.6546383,7.862516
59,1663243311644,-2.3048863,4.657031,7.9011
60,1663243311649,-2.4029922,4.633103,8.015956
61,1663243311649,-2.525026,4.6618166,8.128419
62,1663243311654,-2.5896323,4.673781,8.228917
63,1663243311654,-2.6638098,4.700102,8.338987
64,1663243311659,-2.7526433,4.700102,8.410771
65,1663243311659,-2.78375,4.697709,8.432307
66,1663243311664,-2.8555348,4.690531,8.429914
67,1663243311664,-2.879463,4.6642094,8.437093
68,1663243311668,-2.9129624,4.6235313,8.478069
69,1663243311668,-2.8698916,4.578068,8.480463
70,1663243311673,-2.8172495,4.5014977,8.499605
71,1663243311673,-2.7502506,4.4081774,8.468498
72,1663243311679,-2.7212377,4.343571,8.422736
73,1663243311679,-2.6518457,4.2762733,8.348558
74,1663243311683,-2.5369902,4.235595,8.295917
75,1663243311683,-2.4364917,4.185346,8.221739
76,1663243311689,-2.3479571,4.1183467,8.12124
77,1663243311689,-2.2809582,4.0920258,8.023134
78,1663243311694,-2.1924238,4.0585265,7.91785
79,1663243311694,-2.1634107,4.032205,7.8553376
80,1663243311698,-2.0868404,3.9915273,7.759625
81,1663243311698,-2.0078773,3.9364924,7.745268
82,1663243311703,-1.9528424,3.8886359,7.7261252
83,1663243311703,-1.8954146,3.8766718,7.7069826
84,1663243311708,-1.8523438,3.8718863,7.6328053
85,1663243311708,-1.837987,3.8838503,7.5897346
86,1663243311713,-1.7925233,3.874279,7.5011997
87,1663243311713,-1.8451654,3.9077785,7.472486
88,1663243311718,-1.9145572,3.9628134,7.5514493
89,1663243311718,-1.9504496,3.9867415,7.673483
90,1663243311724,-2.0557337,4.0609193,7.8720875
91,1663243311724,-2.245066,4.065705,8.080562
92,1663243311728,-2.3982065,4.1111684,8.338987
93,1663243311728,-2.5633113,4.139882,8.5474615
94,1663243311733,-2.6303103,4.2332025,8.679067
95,1663243311734,-2.7789643,4.281059,8.762815
96,1663243311738,-2.8938198,4.2762733,8.829815
97,1663243311738,-2.98714,4.2978086,8.896813
98,1663243311743,-3.0254252,4.3411784,8.9470625
99,1663243311743,-3.1043882,4.3387856,8.9470625
100,1663243311747,-3.1307094,4.3387856,8.978169
101,1663243311747,-3.1187453,4.307679,8.992527
102,1663243311753,-3.0828528,4.319643,8.920742
103,1663243311753,-3.1259236,4.2595234,8.932706
104,1663243311758,-3.0972097,4.261916,8.848957
105,1663243311758,-3.054139,4.228417,8.755637
106,1663243311762,-2.9847472,4.2714877,8.650353
107,1663243311762,-2.9392836,4.2738805,8.504391
108,1663243311768,-2.9225338,4.237988,8.374879
109,1663243311768,-2.8842485,4.1925244,8.267202
110,1663243311772,-2.8148568,4.185346,8.123632
111,1663243311772,-2.74038,4.223631,7.958528
112,1663243311777,-2.714059,4.2188454,7.8003025
113,1663243311777,-2.714059,4.235595,7.702197
114,1663243311782,-2.7475586,4.261916,7.6423764
115,1663243311782,-2.7526433,4.307679,7.6663046
116,1663243311787,-2.7451658,4.3387856,7.685447
117,1663243311787,-2.7933214,4.345964,7.742875
118,1663243311792,-2.78375,4.384249,7.7668033
119,1663243311792,-2.8531418,4.4368916,7.8577304
120,1663243311797,-2.8818557,4.4799623,7.9680996
121,1663243311797,-2.9536405,4.525426,8.063812
122,1663243311802,-3.0086753,4.592425,8.219346
123,1663243311802,-3.0924242,4.673781,8.456534
124,1663243311807,-3.204887,4.750351,8.772387
125,1663243311807,-3.2910285,4.872684,9.016754
126,1663243311812,-3.3511481,4.930112,9.236894
127,1663243311812,-3.4707892,5.0162535,9.449855
128,1663243311817,-3.5521452,5.06411,9.60808
129,1663243311817,-3.6550367,5.1382875,9.722936
130,1663243311822,-3.7363925,5.1885366,9.8473625
131,1663243311822,-3.7387853,5.257929,9.911968
132,1663243311826,-3.7555351,5.291428,9.957433
133,1663243311826,-3.7483566,5.3105707,9.933504
134,1663243311832,-3.6861434,5.334499,9.883255
135,1663243311832,-3.6933217,5.3512487,9.833006
136,1663243311837,-3.62393,5.3368917,9.744472
137,1663243311837,-3.5808592,5.3416777,9.672687
138,1663243311841,-3.4851463,5.305785,9.584152
139,1663243311841,-3.3607194,5.234,9.485747
140,1663243311846,-3.2407792,5.1957154,9.349357
141,1663243311846,-3.1402807,5.135895,9.229715
142,1663243311851,-3.0349965,5.0449677,9.148359
143,1663243311851,-2.9679973,4.9636116,9.184252
144,1663243311857,-2.8962128,4.915755,9.2895355
145,1663243311857,-2.8842485,4.8532424,9.5048895
146,1663243311861,-2.908177,4.814957,9.878469
147,1663243311861,-2.9105697,4.779065,10.266405
148,1663243311866,-2.958426,4.7934217,10.618151
149,1663243311866,-3.1043882,4.872684,10.979766
150,1663243311871,-3.3200414,4.977968,11.307881
151,1663243311871,-3.4564323,4.9731827,11.456237
152,1663243311877,-3.6335013,5.0162535,11.583056
153,1663243311877,-3.7746778,5.0425744,11.587842
154,1663243311881,-3.8488553,5.0042896,11.499308
155,1663243311881,-3.9113677,4.977968,11.360524
156,1663243311886,-3.9017963,4.927719,11.19512
157,1663243311886,-3.961617,4.9085765,10.948659
158,1663243311891,-3.932903,4.838886,10.615758
159,1663243311891,-3.8850467,4.795815,10.290334
160,1663243311896,-3.7914274,4.7431726,9.9502535
161,1663243311896,-3.6670008,4.6498528,9.617652
162,1663243311901,-3.566502,4.5948176,9.268001
163,1663243311901,-3.4923246,4.542176,8.939884
164,1663243311905,-3.2790644,4.434499,8.597711
165,1663243311906,-3.027818,4.3292146,8.250452
166,1663243311911,-3.0230322,4.288237,8.293523
167,1663243311911,-2.8986056,4.2020955,8.1738825
168,1663243311916,-3.0589247,4.2667017,8.405986
169,1663243311916,-2.98714,4.2571306,8.492427
170,1663243311921,-2.9392836,4.261916,8.64796
171,1663243311921,-3.0445678,4.2978086,8.865707
172,1663243311925,-3.0924242,4.3387856,8.978169
173,1663243311925,-2.9560332,4.295416,8.865707
174,1663243311930,-3.1737802,4.42732,9.244072
175,1663243311930,-3.0302107,4.3005004,9.08136
176,1663243311936,-2.9943185,4.302893,9.279964
177,1663243311936,-3.0972097,4.2714877,9.303893
178,1663243311940,-2.9919257,4.1901317,9.193823
179,1663243311940,-3.0613174,4.154239,9.155538
180,1663243311945,-3.0038898,4.0417767,9.02154
181,1663243311945,-2.7813573,3.8838503,8.743673
182,1663243311950,-2.771786,3.8192441,8.75803
183,1663243311950,-2.7092733,3.7064822,8.504391
184,1663243311956,-2.8435707,3.7426736,8.4012
185,1663243311956,-2.6781666,3.591627,8.092526
186,1663243311960,-2.5298119,3.4767714,7.920243
187,1663243311960,-2.44367,3.4217365,7.7404823
188,1663243311965,-2.3742783,3.359523,7.568199
189,1663243311965,-2.2498515,3.3116665,7.275975
190,1663243311970,-2.2211375,3.2949169,7.185048
191,1663243311970,-2.0485554,3.2303107,6.9242306
192,1663243311975,-2.1011975,3.2997024,6.7902327
193,1663243311975,-2.038984,3.3164523,6.536294
194,1663243311980,-1.971985,3.35713,6.43101
195,1663243311980,-1.7709879,3.3092737,6.2084775
196,1663243311985,-1.7111673,3.3427732,6.148358
197,1663243311985,-1.6175481,3.4121652,5.940182
198,1663243311991,-1.7087744,3.5437703,5.940182
199,1663243311991,-1.715953,3.6011982,5.7990055
200,1663243311995,-1.7327027,3.7016966,5.77747
201,1663243311995,-1.6633109,3.7474594,5.7343993
202,1663243312000,-1.5122639,3.7088752,5.729614
203,1663243312000,-1.4380864,3.7546377,5.751149
204,1663243312004,-1.3878372,3.766602,5.6985073
205,1663243312004,-1.4404793,3.8575292,5.7248282
206,1663243312010,-1.4907285,3.912564,5.928218
207,1663243312010,-1.4524434,3.886243,5.8636117
208,1663243312014,-1.4524434,3.845565,5.8468623
209,1663243312014,-1.5625132,3.862315,5.942575
210,1663243312019,-1.6274185,3.862315,5.9760747
211,1663243312020,-1.5218352,3.7474594,5.8971114
212,1663243312024,-1.6393826,3.7184465,5.983253
213,1663243312024,-1.7446668,3.7304106,6.067002
214,1663243312029,-1.742274,3.6083765,6.0430737
215,1663243312029,-1.8044873,3.5892339,6.2347984
216,1663243312034,-1.998306,3.6107693,6.344868
217,1663243312034,-1.9097716,3.5030923,6.2108703
218,1663243312039,-2.1299112,3.5509489,6.375975
219,1663243312039,-2.1227329,3.507878,6.349654
220,1663243312044,-2.1155543,3.4911282,6.237191
221,1663243312044,-2.2785654,3.5509489,6.2515483
222,1663243312049,-2.3670998,3.5964124,6.237191
223,1663243312049,-2.4747767,3.65384,6.2347984
224,1663243312054,-2.6279175,3.7785661,6.215656
225,1663243312054,-2.690131,3.862315,6.1124654
226,1663243312059,-2.7957141,3.9317067,6.047859
227,1663243312059,-2.9344978,4.1087756,5.866005
228,1663243312064,-3.0206394,4.2164526,5.7559347
229,1663243312064,-3.121138,4.307679,5.7152567
230,1663243312070,-3.2599218,4.4632125,5.535496
231,1663243312070,-3.3101711,4.549354,5.200501
232,1663243312076,-3.4109688,4.673781,5.1478586
233,1663243312076,-3.5976088,4.8655057,5.1382875
234,1663243312079,-3.5856447,4.8918266,5.00399
235,1663243312079,-3.6382868,4.9085765,4.7862434
236,1663243312083,-3.772285,5.0952168,4.671388
237,1663243312084,-3.9640098,5.1909294,4.673781
238,1663243312088,-4.160221,5.3512487,4.8125644
239,1663243312088,-4.2918267,5.401498,4.872385
240,1663243312093,-4.4018965,5.4352965,4.9058847
241,1663243312093,-4.627121,5.5190454,5.075775
242,1663243312099,-4.8137608,5.5597234,5.1885366
243,1663243312099,-5.0748777,5.660222,5.281857
244,1663243312103,-5.2016973,5.602794,5.45414
245,1663243312103,-5.232804,5.4927244,5.494818
246,1663243312108,-5.5486565,5.552545,5.631209
247,1663243312108,-5.6853466,5.4664035,5.8277197
248,1663243312113,-5.773881,5.3943195,6.145965
249,1663243312113,-5.7858453,5.1717873,6.4477596
250,1663243312118,-5.7284174,4.87747,6.61765
251,1663243312118,-5.556134,4.6929235,7.000801
252,1663243312123,-5.2902317,4.336393,7.3166533
253,1663243312123,-4.9046884,3.8575292,7.4030943
254,1663243312128,-4.406682,3.3667014,7.4365935
255,1663243312128,-3.8560338,2.8926234,7.3983083
256,1663243312133,-3.3631122,2.519044,7.419844
257,1663243312133,-2.9775686,2.1218355,7.417451
258,1663243312138,-2.6662025,1.8511474,7.4700933
259,1663243312138,-2.4293132,1.6645073,7.5418777
260,1663243312143,-2.216352,1.5999011,7.769196
261,1663243312143,-2.077269,1.518545,7.944171
262,1663243312148,-1.9959131,1.5113666,8.2145605
263,1663243312148,-1.957628,1.4946169,8.57139
264,1663243312153,-1.9265213,1.4970096,8.99492
265,1663243312153,-1.9145572,1.5305092,9.483355
266,1663243312158,-1.9504496,1.532902,9.861719
267,1663243312158,-1.9456639,1.5568303,10.1683
268,1663243312163,-1.9265213,1.5161523,10.407582
269,1663243312163,-1.8523438,1.4703895,10.675578
270,1663243312168,-1.8116659,1.4970096,10.824232
271,1663243312168,-1.6800606,1.5089738,10.912766
272,1663243312173,-1.5074782,1.477568,10.941481
273,1663243312173,-1.3495519,1.451247,10.965409
274,1663243312178,-1.1653047,1.3746766,10.929517
275,1663243312178,-0.9137592,1.3507484,10.979766
276,1663243312182,-0.7007979,1.3339987,10.965409
277,1663243312182,-0.4444668,1.2789637,10.955837
278,1663243312187,-0.19561325,1.1976078,11.00848
279,1663243312187,0.118145615,1.0372887,11.087442
280,1663243312192,0.48903313,0.8383852,11.152049
281,1663243312192,0.93679005,0.5392824,11.187942
282,1663243312197,1.3869399,0.19680966,11.260025
283,1663243312197,1.8251255,-0.09272188,11.475379
284,1663243312202,2.2941186,-0.33469605,11.832209
285,1663243312202,2.7586255,-0.5404788,12.28206
286,1663243312207,3.1154552,-0.7103692,12.760923
287,1663243312207,3.3427732,-0.7704889,13.342678
288,1663243312213,3.4531422,-0.72472614,14.008182
289,1663243312213,3.4531422,-0.6098707,14.604294
290,1663243312217,3.333202,-0.44715872,15.200705
291,1663243312217,3.0819557,-0.24616162,15.707983
292,1663243312222,2.8232317,-0.030508488,16.184454
293,1663243312222,2.4858437,0.15373886,16.560427
294,1663243312227,2.1481566,0.30209386,16.847565
295,1663243312227,1.7988044,0.4124628,17.046469
296,1663243312232,1.5281163,0.5344968,17.168503
297,1663243312232,1.2194422,0.6302097,17.202002
298,1663243312237,0.95353985,0.65653074,17.137396
299,1663243312237,0.70947194,0.6302097,16.955542
300,1663243312242,0.50099725,0.57517475,16.742281
301,1663243312242,0.37657046,0.47706902,16.450357
302,1663243312247,0.18753748,0.4004987,16.134205
303,1663243312247,0.005383851,0.38853458,15.801602
304,1663243312252,-0.19800608,0.44117668,15.437594
305,1663243312252,-0.39661035,0.46031925,15.020945
306,1663243312256,-0.5500501,0.5129613,14.640486
307,1663243312257,-0.72472614,0.56799626,14.374583
308,1663243312261,-0.8563314,0.62781686,14.099408
309,1663243312261,-1.038186,0.6158527,13.771293
310,1663243312266,-1.3471591,0.6900302,13.421641
311,1663243312266,-1.6992031,0.90538424,13.462319
312,1663243312271,-2.094019,1.1114662,13.529617
313,1663243312271,-2.3982065,1.2981063,13.656437
314,1663243312276,-2.5298119,1.3866407,13.716258
315,1663243312276,-2.5106692,1.396212,13.747364
316,1663243312281,-2.3790638,1.3531412,13.704293
317,1663243312281,-2.1924238,1.314856,13.7354
318,1663243312286,-1.9121644,1.2717853,13.857434
319,1663243312286,-1.6127625,1.2358929,13.97229
320,1663243312291,-1.2418749,1.1449656,14.101801
321,1663243312291,-0.901795,1.0444671,14.223835
322,1663243312296,-0.5524429,0.9846465,14.307584
323,1663243312296,-0.23629123,0.91495556,14.35544
324,1663243312301,0.055633128,0.9245269,14.348262
325,1663243312301,0.33110684,0.9029915,14.336298
326,1663243312306,0.58235323,0.95353985,14.250156
327,1663243312306,0.7692925,0.99661064,14.180764
328,1663243312311,0.91525465,1.0540384,14.111372
329,1663243312311,1.0229317,1.125823,13.943576
330,1663243312316,1.0971092,1.2358929,13.771293
331,1663243312316,1.1186446,1.3579268,13.582259
332,1663243312321,1.1617154,1.5041882,13.388142
333,1663243312321,1.2122638,1.6764714,13.151253
334,1663243312326,1.2314063,1.8176479,12.830315
335,1663243312326,1.2912269,1.9827527,12.416357
336,1663243312331,1.384547,2.1218355,11.95185
337,1663243312331,1.5137594,2.2534406,11.413166
338,1663243312336,1.6453646,2.4185455,10.852946
339,1663243312336,1.7892331,2.545365,10.287941
340,1663243312341,1.9639091,2.694019,9.768399
341,1663243312341,2.114657,2.83041,9.227323
342,1663243312346,2.2510478,2.8758738,8.714959
343,1663243312346,2.631806,2.7179475,8.250452
344,1663243312350,3.0843484,2.5262225,7.8720875
345,1663243312350,3.2327034,2.6796622,7.525128
346,1663243312356,3.1752756,2.952444,7.1802626
347,1663243312356,3.0556345,3.211168,6.95773
348,1663243312361,2.9742785,3.400201,6.862017
349,1663243312361,2.9455647,3.5581272,6.8404818
350,1663243312365,2.9623144,3.6083765,6.8691955
351,1663243312365,2.9359934,3.682554,6.835696
352,1663243312370,2.8689942,3.7594235,6.7926254
353,1663243312370,2.73709,3.7905302,6.766304
354,1663243312376,2.5911279,3.804887,6.8189464
355,1663243312376,2.4236302,3.8192441,6.88116
356,1663243312380,2.2223341,3.7857444,6.931409
357,1663243312380,1.9878374,3.8359938,6.931409
358,1663243312386,1.7338991,3.8766718,6.984051
359,1663243312386,1.4994025,3.9101713,7.0079794
360,1663243312391,1.2744771,3.9628134,7.010372
361,1663243312391,1.0875379,4.075276,6.986444
362,1663243312396,0.910469,4.1997027,6.878767
363,1663243312396,0.6879365,4.3651066,6.7612195
364,1663243312401,0.49860442,4.518247,6.6272216
365,1663243312402,0.3382853,4.6450667,6.4070816
366,1663243312406,0.2545365,4.7718863,6.1387863
367,1663243312406,0.21385853,4.814957,5.791827
368,1663243312411,0.2425724,4.86072,5.4756756
369,1663243312411,0.44835514,4.872684,5.169394
370,1663243312415,0.6879365,4.872684,4.862814
371,1663243312416,0.97507524,4.86072,4.606782
372,1663243312420,1.3151551,4.8942194,4.3815575
373,1663243312420,1.6525432,4.927719,4.237988
374,1663243312426,1.9806589,4.93729,4.10399
375,1663243312426,2.289333,5.0162535,4.1015973
376,1663243312430,2.5767708,5.078467,4.139882
377,1663243312430,2.8208387,5.092824,4.194917
378,1663243312435,3.0125637,5.143073,4.281059
379,1663243312435,3.1920254,5.1909294,4.427021
380,1663243312440,3.3810585,5.2220364,4.6139603
381,1663243312440,3.536891,5.2316074,4.8125644
382,1663243312445,3.6206398,5.2555356,5.0422754
383,1663243312445,3.7019958,5.2770715,5.265107
384,1663243312450,3.7618163,5.308178,5.4900327
385,1663243312450,3.792923,5.3512487,5.729614
386,1663243312454,3.752245,5.382355,5.9138613
387,1663243312454,3.6541393,5.406284,6.141179
388,1663243312460,3.5751762,5.4110694,6.361618
389,1663243312460,3.4722848,5.4038906,6.6152573
390,1663243312465,3.3762727,5.401498,6.88116
391,1663243312465,3.278167,5.401498,7.0965137
392,1663243312470,3.17049,5.391927,7.2879395
393,1663243312470,3.034099,5.3679986,7.4102726
394,1663243312474,2.928815,5.389534,7.458129
395,1663243312474,2.8136604,5.4038906,7.4796643
396,1663243312480,2.6629126,5.399105,7.419844
397,1663243312480,2.5265217,5.4110694,7.333702
398,1663243312484,2.4020948,5.444868,7.1419773
399,1663243312484,2.3207388,5.4616175,6.919445
400,1663243312490,2.2199411,5.483153,6.646364
401,1663243312490,2.167299,5.5166526,6.3807607
402,1663243312495,2.1074786,5.538188,6.117251
403,1663243312495,2.0285153,5.5716877,5.8707905
404,1663243312500,1.9064814,5.631508,5.6650076
405,1663243312501,1.8323039,5.686543,5.4637113
406,1663243312505,1.7581264,5.7750773,5.3033924
407,1663243312505,1.7099708,5.81097,5.1526446
408,1663243312510,1.7243278,5.8396835,5.0590253
409,1663243312510,1.7291135,5.8540406,4.956134
410,1663243312515,1.7820547,5.8875403,4.9417768
411,1663243312515,1.9184456,5.8971114,4.936991
412,1663243312519,2.030908,5.8683977,5.011169
413,1663243312519,2.1601207,5.8564334,5.092824
414,1663243312524,2.2989044,5.8540406,5.17418
415,1663243312524,2.3662026,5.834898,5.2890353
416,1663243312529,2.4427729,5.8420763,5.401498
417,1663243312529,2.4978077,5.834898,5.540282
418,1663243312534,2.5408785,5.8468623,5.662615
419,1663243312534,2.5839493,5.825327,5.825327
420,1663243312539,2.6413772,5.7870417,5.9880385
421,1663243312539,2.696412,5.712864,6.203692
422,1663243312544,2.8543384,5.889933,5.7009
423,1663243312544,2.8642087,5.8947186,6.270691
424,1663243312549,2.902494,5.968896,6.3711896
425,1663243312549,2.8833513,6.0338016,6.335297
426,1663243312554,2.8375885,6.107979,6.428617
427,1663243312554,2.8088746,6.174978,6.550651
428,1663243312558,2.751447,6.237191,6.6678996
429,1663243312558,2.7442684,6.270691,6.742077
430,1663243312564,2.7586255,6.270691,6.7854466
431,1663243312564,2.7849464,6.270691,6.795018
432,1663243312570,2.7825537,6.230013,6.7758756
433,1663243312570,2.7705896,6.1582284,6.6798635
434,1663243312573,2.861816,6.1582284,6.675078
435,1663243312594,3.0005996,6.22762,6.7516484
436,1663243312594,3.2303107,6.54108,6.581758
437,1663243312594,3.5344982,6.5027947,6.61765
438,1663243312594,3.6230326,6.426224,6.9936223
439,1663243312595,3.792923,6.471688,6.9242306
440,1663243312595,3.9508493,6.3807607,6.838089
441,1663243312595,3.969992,6.2994046,6.969694
442,1663243312595,4.0013976,6.131907,7.2735825
443,1663243312598,4.1808596,5.9617176,6.9242306
444,1663243312598,4.1114674,5.851648,7.3214393
445,1663243312603,4.022933,5.753542,7.376773
446,1663243312603,3.9006,5.6817575,7.754839
447,1663243312608,3.874279,5.5501523,7.582556
448,1663243312608,3.6278183,5.602794,7.8987074
449,1663243312613,3.3547373,5.636294,8.018349
450,1663243312613,3.0460632,5.621937,8.415557
451,1663243312618,2.9216363,5.6482577,8.087741
452,1663243312618,2.629413,5.6817575,8.23131
453,1663243312624,2.3446672,5.6674004,8.427522
454,1663243312624,2.1242282,5.633901,8.315059
455,1663243312629,1.9878374,5.633901,7.9776707
456,1663243312629,1.8251255,5.6243296,7.8963146
457,1663243312633,1.6573287,5.6243296,7.8074813
458,1663243312633,1.559223,5.6530433,7.4700933
459,1663243312638,1.4563317,5.703293,7.1635127
460,1663243312638,1.3558332,5.7343993,6.921838
461,1663243312643,1.2672987,5.825327,6.6224356
462,1663243312643,1.2385849,5.9042897,6.285048
463,1663243312648,1.221835,5.9521465,6.033502
464,1663243312648,1.2385849,5.997909,5.7559347
465,1663243312652,1.2649059,6.0457654,5.554639
466,1663243312652,1.3486546,6.050551,5.389534
467,1663243312657,1.4228321,6.0457654,5.281857
468,1663243312657,1.5496517,6.0290155,5.2196436
469,1663243312663,1.6788642,6.0026946,5.210072
470,1663243312663,1.8346968,5.966503,5.293821
471,1663243312667,1.9639091,5.901897,5.4110694
472,1663243312667,2.0715861,5.892326,5.5713882
473,1663243312673,2.1744776,5.858826,5.710471
474,1663243312673,2.2558336,5.866005,5.9114685
475,1663243312678,2.3279173,5.861219,6.1268225
476,1663243312678,2.3973093,5.8396835,6.328119
477,1663243312682,2.4882364,5.8157554,6.5578294
478,1663243312682,2.507379,5.8037915,6.811768
479,1663243312688,2.588735,5.7631135,7.039086
480,1663243312688,2.6772695,5.7009,7.2879395
481,1663243312692,2.7849464,5.660222,7.568199
482,1663243312692,2.900101,5.602794,7.8050885
483,1663243312697,3.0197423,5.51426,8.003992
484,1663243312697,3.101098,5.471189,8.188239
485,1663243312704,3.1728828,5.4257255,8.3174515
486,1663243312704,3.2183464,5.3273206,8.413164
487,1663243312707,3.2542388,5.274678,8.49482
488,1663243312707,3.2542388,5.2316074,8.5067835
489,1663243312712,3.2350962,5.1909294,8.523534
490,1663243312712,3.1728828,5.1622157,8.504391
491,1663243312716,3.1465619,5.135895,8.475677
492,1663243312716,3.089134,5.0880384,8.451749
493,1663243312721,3.07717,5.0545387,8.425129
494,1663243312721,3.0388846,5.0066824,8.410771
495,1663243312727,3.0005996,4.968397,8.370093
496,1663243312727,2.9623144,4.9253263,8.331808
497,1663243312732,2.9503503,4.8990054,8.26481
498,1663243312732,2.861816,4.887041,8.188239
499,1663243312736,2.8232317,4.872684,8.154739
500,1663243312736,2.7251258,4.846064,8.106883
501,1663243312742,2.603092,4.831707,8.097312
502,1663243312742,2.495415,4.819743,8.051848
503,1663243312746,2.33031,4.829314,8.020741
504,1663243312747,2.207977,4.8412786,7.9920278
505,1663243312751,2.0117657,4.8750772,8.001599
506,1663243312751,1.899303,4.903791,8.020741
507,1663243312756,1.762912,4.942076,8.059027
508,1663243312756,1.6381862,4.98754,8.056634
509,1663243312762,1.5089738,5.0306106,8.030313
510,1663243312762,1.4060824,5.0880384,8.025527
511,1663243312767,1.3390833,5.1119666,7.9920278
512,1663243312767,1.262513,5.1406803,7.9226356
513,1663243312771,1.2050853,5.1382875,7.783553
514,1663243312771,1.1712867,5.1382875,7.6136627
515,1663243312777,1.1688938,5.1239305,7.431808
516,1663243312777,1.1811571,5.1119666,7.2376904
517,1663243312781,1.1907284,5.1287165,7.0869427
518,1663243312781,1.2266207,5.17418,6.88116
519,1663243312786,1.3342978,5.2483573,6.6966133
520,1663243312786,1.4395819,5.3105707,6.5578294
521,1663243312791,1.4036896,5.2770715,6.3951178
522,1663243312791,1.1282159,5.109574,6.0598235
523,1663243312796,1.2146566,5.2770715,6.4549384
524,1663243312796,1.1787642,5.2794642,6.852446
525,1663243312801,1.2888341,5.375177,7.216155
526,1663243312801,1.4276178,5.4999027,7.4916286
527,1663243312806,1.5999011,5.6099725,7.714161
528,1663243312806,1.7844474,5.7343993,7.8720875
529,1663243312810,1.9902302,5.820541,8.02792
530,1663243312811,2.224727,5.9042897,8.169097
531,1663243312816,2.4212375,5.9377894,8.276773
532,1663243312816,2.5815566,5.966503,8.386844
533,1663243312820,2.7729824,5.973682,8.480463
534,1663243312820,2.9048867,5.8947186,8.652746
535,1663243312825,3.0939198,5.8420763,8.8681
536,1663243312825,3.249453,5.7391853,9.038289
537,1663243312830,3.35713,5.6410794,9.234501
538,1663243312830,3.4507494,5.5669017,9.294321
539,1663243312835,3.496213,5.471189,9.356535
540,1663243312835,3.4914274,5.454439,9.351749
541,1663243312840,3.4097722,5.4592247,9.253643
542,1663243312840,3.3092737,5.454439,9.124431
543,1663243312845,3.1657043,5.4496536,9.009576
544,1663243312846,2.9383862,5.430511,8.872886
545,1663243312850,2.7299116,5.4376893,8.746066
546,1663243312850,2.483451,5.4376893,8.57139
547,1663243312855,2.2701905,5.42094,8.415557
548,1663243312855,1.9878374,5.4086766,8.274381
549,1663243312860,1.7315062,5.372784,8.1020975
550,1663243312860,1.4850456,5.3416777,7.9561353
551,1663243312865,1.250549,5.2794642,7.8146596
552,1663243312865,1.1760724,5.0593243,7.522735
553,1663243312870,1.0588241,4.920541,7.3935227
554,1663243312870,0.8865408,4.9085765,7.309475
555,1663243312875,0.65682983,4.9396834,7.228119
556,1663243312875,0.41006997,4.9755754,7.16112
557,1663243312880,0.24975087,5.009075,7.106085
558,1663243312880,0.13250256,5.0138607,7.151549
559,1663243312885,0.060717873,5.037789,7.1802626
560,1663243312885,0.019740786,5.028218,7.216155
561,1663243312890,0.005383851,5.0425744,7.292725
562,1663243312890,-0.052043892,5.0712886,7.3576307
563,1663243312894,-0.16211374,5.150252,7.458129
564,1663243312894,-0.42771706,5.090431,7.527521
565,1663243312899,-0.6577271,5.0545387,7.6423764
566,1663243312899,-0.6577271,5.1215377,7.944171
567,1663243312905,-0.7725826,5.1215377,8.1738825
568,1663243312905,-0.7199405,5.1239305,8.343773
569,1663243312909,-0.6936195,5.1239305,8.49482
570,1663243312910,-0.7295118,5.1119666,8.564211
571,1663243312914,-0.8276175,5.109574,8.688638
572,1663243312914,-0.86111706,5.119145,8.81785
573,1663243312919,-0.8491529,5.068896,8.949456
574,1663243312919,-0.8012965,4.9755754,9.093325
575,1663243312924,-0.7319046,4.9061837,9.241679
576,1663243312925,-0.6361917,4.8364925,9.39482
577,1663243312929,-0.47318068,4.7718863,9.519247
578,1663243312929,-0.29132617,4.70728,9.593723
579,1663243312934,-0.12861422,4.6498528,9.636794
580,1663243312934,0.017347964,4.6259246,9.655936
581,1663243312939,0.118145615,4.633103,9.665508
582,1663243312939,0.18753748,4.657031,9.699007
583,1663243312944,0.3167499,4.6689954,9.672687
584,1663243312944,0.42921257,4.70728,9.655936
585,1663243312949,0.53688955,4.7024946,9.500104
586,1663243312949,0.66400826,4.731209,9.334999
587,1663243312954,0.6759724,4.726423,9.122038
588,1663243312954,0.62093747,4.6881375,8.930313
589,1663243312959,0.5608178,4.659424,8.640781
590,1663243312959,0.6233303,4.747958,8.49482
591,1663243312964,0.5416752,4.8006005,8.398808
592,1663243312965,0.695115,4.9516473,8.219346
593,1663243312969,0.63529444,5.0449677,8.1020975
594,1663243312969,0.6520442,5.217251,8.063812
595,1663243312974,0.599103,5.382355,8.099705
596,1663243312974,0.5273183,5.538188,8.16431
597,1663243312979,0.4004987,5.643472,8.209774
598,1663243312979,0.23060828,5.6961145,8.169097
599,1663243312984,0.19950159,5.753542,8.226524
600,1663243312984,0.09900304,5.6913285,8.279166
601,1663243312989,0.0846461,5.6004014,8.319844
602,1663243312989,0.122931264,5.428118,8.382058
603,1663243312994,0.15643078,5.2292147,8.429914
604,1663243312994,0.19950159,5.037789,8.52114
605,1663243312999,0.2545365,4.863113,8.643174
606,1663243312999,0.24735804,4.7766724,8.753244
607,1663243313004,0.22582264,4.714459,8.88485
608,1663243313004,0.16121642,4.726423,9.02154
609,1663243313008,0.055633128,4.7623153,9.102896
610,1663243313008,-0.052043892,4.8245287,9.1770735
611,1663243313013,-0.20039889,4.887041,9.184252
612,1663243313013,-0.32243285,4.944469,9.145967
613,1663243313018,-0.48275197,5.001897,9.062218
614,1663243313018,-0.61704916,5.0234323,8.982955
615,1663243313023,-0.7007979,5.0186462,8.887242
616,1663243313024,-0.7965108,5.028218,8.786744
617,1663243313028,-0.8682955,4.9803615,8.714959
618,1663243313028,-0.87308115,4.956433,8.607282
619,1663243313033,-0.8635099,4.93729,8.545069
620,1663243313033,-0.80847496,4.927719,8.454142
621,1663243313038,-0.794118,4.9325047,8.365308
622,1663243313038,-0.74147594,4.9468617,8.267202
623,1663243313043,-0.67208403,4.9636116,8.190632
624,1663243313043,-0.6146563,4.9636116,8.118847
625,1663243313048,-0.54287165,4.985147,8.0614195
626,1663243313048,-0.4636094,4.985147,7.960921
627,1663243313053,-0.3894319,4.9899325,7.867302
628,1663243313053,-0.3056831,4.982754,7.7907314
629,1663243313058,-0.24107689,4.97079,7.714161
630,1663243313058,-0.212363,4.97079,7.6519475
631,1663243313063,-0.20757736,4.97079,7.568199
632,1663243313064,-0.2219343,4.977968,7.496414
633,1663243313071,0.16360925,4.563711,7.458129
634,1663243313072,1.2577274,3.6777685,7.434201
635,1663243313073,1.4204394,3.694518,7.3190465
636,1663243313073,1.0612168,4.034598,7.3360953
637,1663243314077,-1.1174482,4.578068,7.2496543
638,1663243314077,-1.1365907,4.534997,7.5897346
639,1663243314106,-1.1533405,4.494319,7.9561353
640,1663243314106,-1.1509477,4.4129634,8.432307
641,1663243314106,-1.1270195,4.302893,8.882457
642,1663243314106,-1.1246266,4.182953,9.339785
643,1663243314106,-1.1389836,4.0585265,9.756435
644,1663243314107,-1.1676974,3.9173498,10.1683
645,1663243314107,-1.1988041,3.780959,10.6014
646,1663243314107,-1.2323036,3.6681972,11.039586
647,1663243314107,-1.2442678,3.5533416,11.403595
648,1663243314107,-1.2346965,3.4504502,11.745769
649,1663243314107,-1.2634103,3.3499517,12.026028
650,1663243314107,-1.2753744,3.3044882,12.298809
651,1663243314109,-1.2921243,3.2638102,12.502499
652,1663243314109,-1.2514462,3.196811,12.614961
653,1663243314113,-1.1724831,3.182454,12.674782
654,1663243314113,-1.1222339,3.1486554,12.60539
655,1663243314118,-1.0262218,3.1199417,12.421143
656,1663243314118,-0.9281161,3.1127632,12.195918
657,1663243314123,-0.83001035,3.1055846,11.908779
658,1663243314123,-0.7175477,3.0936205,11.604591
659,1663243314128,-0.6840482,3.0912278,11.233405
660,1663243314128,-0.6266204,3.100799,10.941481
661,1663243314133,-0.59790653,3.1247272,10.596615
662,1663243314134,-0.5907281,3.115156,10.26162
663,1663243314138,-0.57876396,3.1175487,9.93829
664,1663243314138,-0.5476573,3.1199417,9.62483
665,1663243314144,-0.5189434,3.115156,9.339785
666,1663243314144,-0.48035914,3.115156,9.023932
667,1663243314148,-0.4779663,3.1103704,8.722137
668,1663243314148,-0.5093721,3.100799,8.408379
669,1663243314153,-0.53330034,3.100799,8.140383
670,1663243314153,-0.5835496,3.115156,7.8696947
671,1663243314158,-0.6242276,3.1079776,7.635198
672,1663243314158,-0.686441,3.1342986,7.446165
673,1663243314163,-0.7079764,3.139084,7.285547
674,1663243314163,-0.7582257,3.1725838,7.151549
675,1663243314168,-0.76540416,3.1534412,7.036693
676,1663243314168,-0.74386877,3.1701908,6.878767
677,1663243314173,-0.68165535,3.1725838,6.6224356
678,1663243314173,-0.56440705,3.1055846,6.3305116
679,1663243314178,-0.42053857,3.060121,6.1531434
680,1663243314178,-0.19082761,2.993122,6.0574307
681,1663243314183,0.012562319,2.9021947,6.114858
682,1663243314183,0.034097724,2.871088,6.280262
683,1663243314188,-0.025722843,2.9141588,6.5745792
684,1663243314188,-0.04965107,2.9835508,6.7588267
685,1663243314193,0.014955142,3.0625138,6.8596244
686,1663243314193,0.17318054,3.1127632,6.871588
687,1663243314197,0.4459623,3.129513,6.9361944
688,1663243314197,0.7286145,3.1366913,7.077371
689,1663243314203,0.98943216,3.086442,7.2711897
690,1663243314203,1.1979069,3.0098717,7.6256266
691,1663243314208,1.3558332,2.9356942,8.075776
692,1663243314208,1.5544374,2.9093733,8.487641
693,1663243314212,1.6932211,2.8567312,8.908778
694,1663243314213,1.8107685,2.8232317,9.327821
695,1663243314218,1.9232312,2.8351958,9.710972
696,1663243314218,2.0165513,2.832803,10.053145
697,1663243314223,2.0644078,2.8064818,10.386046
698,1663243314223,2.0404794,2.8112676,10.615758
699,1663243314227,1.9423738,2.7586255,10.795519
700,1663243314228,1.8394824,2.734697,10.917552
701,1663243314233,1.6860427,2.6796622,11.003694
702,1663243314233,1.506581,2.6222346,11.073086
703,1663243314237,1.3486546,2.6027927,11.099407
704,1663243314237,1.1473584,2.5477579,11.12812
705,1663243314242,0.94396853,2.5286152,11.080264
706,1663243314242,0.68075806,2.5094728,11.034801
707,1663243314247,0.41485563,2.4951158,10.917552
708,1663243314248,0.14925231,2.5262225,10.80509
709,1663243314252,-0.07597212,2.5094728,10.656436
710,1663243314253,-0.2650051,2.5262225,10.524831
711,1663243314257,-0.42532423,2.5477579,10.407582
712,1663243314257,-0.5452645,2.5381866,10.271192
713,1663243314262,-0.65294147,2.5310082,10.117751
714,1663243314262,-0.67447686,2.5094728,9.931111
715,1663243314268,-0.605085,2.4041886,9.749257
716,1663243314268,-0.19082761,1.9468603,9.466604
717,1663243314272,-0.09032906,1.8655044,9.646365
718,1663243314272,-0.16689938,2.0306091,9.928719
719,1663243314277,-0.2961118,2.315654,10.1348
720,1663243314278,-0.4325027,2.6027927,10.218549
721,1663243314282,-0.56440705,2.8519454,10.266405
722,1663243314282,-0.63858455,3.007479,10.242477
723,1663243314287,-0.7103692,3.100799,10.208978
724,1663243314287,-0.7366903,3.0984063,10.232906
725,1663243314292,-0.7055836,3.0122645,10.249656
726,1663243314292,-0.6266204,2.8734808,10.249656
727,1663243314298,-0.53569317,2.6988049,10.285548
728,1663243314298,-0.44207397,2.5286152,10.35494
729,1663243314302,-0.32243285,2.370689,10.421939
730,1663243314302,-0.25064817,2.236691,10.484153
731,1663243314307,-0.22911277,2.1936202,10.510473
732,1663243314307,-0.20279172,2.2055843,10.532009
733,1663243314311,-0.18843478,2.2342982,10.572687
734,1663243314312,-0.20279172,2.2989044,10.582258
735,1663243314318,-0.23868406,2.373082,10.520044
736,1663243314318,-0.20757736,2.437688,10.496117
737,1663243314321,-0.17647067,2.4951158,10.407582
738,1663243314322,-0.1788635,2.5477579,10.321441
739,1663243314326,-0.1788635,2.5573292,10.201799
740,1663243314326,-0.1381855,2.5549364,10.03161
741,1663243314331,-0.0951147,2.533401,9.885648
742,1663243314332,-0.020937199,2.5118656,9.758828
743,1663243314337,0.067896344,2.4759731,9.670294
744,1663243314337,0.13489537,2.4496522,9.629616
745,1663243314342,0.20428723,2.4352953,9.586545
746,1663243314342,0.25214368,2.4329023,9.605687
747,1663243314347,0.2760719,2.4496522,9.64158
748,1663243314347,0.30000013,2.4616163,9.691829
749,1663243314351,0.31435707,2.4879375,9.792328
750,1663243314351,0.33589247,2.480759,9.871291
751,1663243314357,0.31435707,2.4592235,10.007682
752,1663243314357,0.27846473,2.4424736,10.1683
753,1663243314362,0.28085756,2.3874388,10.321441
754,1663243314363,0.26889345,2.3467607,10.438689
755,1663243314368,0.22342981,2.2319052,10.567902
756,1663243314368,0.2114657,2.167299,10.675578
757,1663243314372,0.16600206,2.0811574,10.726127
758,1663243314373,0.122931264,2.0644078,10.790732
759,1663243314376,0.072681986,2.0620148,10.783554
760,1663243314376,0.010169496,2.0620148,10.735698
761,1663243314381,-0.020937199,2.0691934,10.685149
762,1663243314381,-0.08315059,2.1003,10.6205435
763,1663243314385,-0.15732808,2.126621,10.5080805
764,1663243314385,-0.21714866,2.140978,10.419546
765,1663243314391,-0.27218357,2.1625135,10.340583
766,1663243314391,-0.2745764,2.1433709,10.208978
767,1663243314396,-0.20757736,2.044966,9.971789
768,1663243314396,-0.109471634,2.006681,9.868897
769,1663243314400,-0.12622139,2.1098714,9.933504
770,1663243314400,-0.15254244,2.2677977,9.923933
771,1663243314405,-0.13339986,2.4472594,9.830613
772,1663243314405,-0.09750752,2.5860431,9.703794
773,1663243314410,-0.028115666,2.6916263,9.60808
774,1663243314410,0.024526432,2.7897322,9.557532
775,1663243314415,0.050847482,2.8375885,9.509675
776,1663243314415,0.09182457,2.8686953,9.468997
777,1663243314420,0.08225328,2.9213374,9.4737835
778,1663243314420,0.058325052,2.94048,9.47139
779,1663243314425,0.072681986,2.9333014,9.490533
780,1663243314426,0.060717873,2.9021947,9.502497
781,1663243314430,0.050847482,2.8686953,9.495318
782,1663243314431,0.046061836,2.8208387,9.468997
783,1663243314435,0.050847482,2.7945178,9.45464
784,1663243314435,0.09182457,2.7203403,9.483355
785,1663243314440,0.067896344,2.684448,9.512068
786,1663243314440,0.050847482,2.6461627,9.555139
787,1663243314446,0.019740786,2.631806,9.612865
788,1663243314446,-0.020937199,2.6605196,9.646365
789,1663243314450,-0.10468599,2.6916263,9.687043
790,1663243314450,-0.16689938,2.7299116,9.68465
791,1663243314455,-0.22671995,2.7418756,9.679865
792,1663243314455,-0.27218357,2.7825537,9.646365
793,1663243314459,-0.31286156,2.7873392,9.60808
794,1663243314460,-0.30089745,2.792125,9.538389
795,1663243314465,-0.29850462,2.7849464,9.495318
796,1663243314465,-0.2961118,2.8088746,9.37807
797,1663243314470,-0.3367898,2.8136604,9.275179
798,1663243314470,-0.35114673,2.844767,9.17468
799,1663243314475,-0.36311084,2.8543384,9.100503
800,1663243314475,-0.39900318,2.883052,9.006884
801,1663243314480,-0.41575295,2.911766,8.925528
802,1663243314480,-0.4444668,2.926123,8.853743
803,1663243314485,-0.46121657,2.9141588,8.79153
804,1663243314485,-0.45403808,2.9356942,8.738888
805,1663243314490,-0.49232325,2.938087,8.700603
806,1663243314490,-0.5069793,2.8974092,8.645567
807,1663243314494,-0.538086,2.9069805,8.607282
808,1663243314495,-0.5596214,2.9189446,8.580961
809,1663243314500,-0.5596214,2.9189446,8.614461
810,1663243314500,-0.5524429,2.8926234,8.650353
811,1663243314504,-0.56440705,2.871088,8.681459
812,1663243314504,-0.55722857,2.8495526,8.741281
813,1663243314510,-0.57876396,2.8471599,8.860921
814,1663243314510,-0.58594245,2.842374,8.951849
815,1663243314514,-0.60029936,2.83041,9.045467
816,1663243314514,-0.64576304,2.818446,9.117252
817,1663243314521,-0.69122666,2.7945178,9.189037
818,1663243314521,-0.7223333,2.7658038,9.239286
819,1663243314524,-0.74147594,2.7705896,9.28475
820,1663243314524,-0.78454673,2.7394829,9.34457
821,1663243314529,-0.77736825,2.7011976,9.4019985
822,1663243314529,-0.77736825,2.722733,9.437891
823,1663243314533,-0.78693956,2.684448,9.45464
824,1663243314533,-0.74386877,2.6868408,9.468997
825,1663243314538,-0.7151549,2.684448,9.490533
826,1663243314538,-0.68165535,2.6509483,9.492926
827,1663243314543,-0.65054864,2.6676981,9.524033
828,1663243314543,-0.6026922,2.6796622,9.559925
829,1663243314548,-0.57637113,2.6629126,9.591331
830,1663243314548,-0.5500501,2.6509483,9.593723
831,1663243314554,-0.5165506,2.6581268,9.612865
832,1663243314554,-0.44207397,2.6413772,9.605687
833,1663243314558,-0.42053857,2.6605196,9.605687
834,1663243314558,-0.35593235,2.6605196,9.60808
835,1663243314564,-0.2961118,2.6341987,9.617652
836,1663243314564,-0.23629123,2.612364,9.620045
837,1663243314571,-0.16689938,2.6270201,9.629616
838,1663243314571,-0.15493527,2.6461627,9.6224375
839,1663243314574,-0.15732808,2.6581268,9.617652
840,1663243314574,-0.17168503,2.6533413,9.600902
841,1663243315087,-1.6369898,2.0739791,9.861719
842,1663243315087,-1.675275,2.0715861,9.890433
843,1663243315087,-1.6992031,2.0931215,9.854541
844,1663243315087,-1.7590238,2.1098714,9.81147
845,1663243315087,-1.7638094,2.0835502,9.749257
846,1663243315092,-1.8116659,2.0835502,9.646365
847,1663243315092,-1.8188443,2.0955145,9.557532
848,1663243315097,-1.9002002,2.11705,9.437891
849,1663243315097,-1.9073788,2.114657,9.323035
850,1663243315102,-1.91695,2.0955145,9.203394
851,1663243315102,-1.9145572,2.1529422,9.083753
852,1663243315107,-1.8667008,2.179263,8.99492
853,1663243315107,-1.8475581,2.2151556,8.951849
854,1663243315112,-1.809273,2.2295125,8.903992
855,1663243315112,-1.8284156,2.236691,8.877671
856,1663243315117,-1.8020946,2.277369,8.805886
857,1663243315117,-1.82363,2.2965117,8.779566
858,1663243315122,-1.7997017,2.3371894,8.772387
859,1663243315122,-1.7733806,2.3204398,8.810672
860,1663243315127,-1.7781663,2.315654,8.844172
861,1663243315127,-1.7614166,2.3252254,8.930313
862,1663243315131,-1.7374884,2.3132613,9.002098
863,1663243315131,-1.7111673,2.3228326,9.107681
864,1663243315137,-1.6776677,2.3252254,9.210572
865,1663243315137,-1.6322042,2.3467607,9.306286
866,1663243315141,-1.5888343,2.3802602,9.390035
867,1663243315142,-1.5529419,2.4305096,9.457033
868,1663243315147,-1.4907285,2.4616163,9.502497
869,1663243315147,-1.4476577,2.4735804,9.552746
870,1663243315151,-1.4380864,2.4687948,9.524033
871,1663243315151,-1.3806586,2.4879375,9.533604
872,1663243315157,-1.3710874,2.4903302,9.52164
873,1663243315157,-1.3399807,2.4783661,9.533604
874,1663243315161,-1.3519448,2.466402,9.512068
875,1663243315161,-1.3399807,2.41376,9.495318
876,1663243315167,-1.3375878,2.4161527,9.509675
877,1663243315167,-1.3471591,2.4185455,9.478569
878,1663243315171,-1.375873,2.3946173,9.485747
879,1663243315171,-1.3782659,2.373082,9.531211
880,1663243315177,-1.3806586,2.3659034,9.540782
881,1663243315177,-1.3591232,2.3611178,9.540782
882,1663243315181,-1.3304094,2.3347967,9.586545
883,1663243315181,-1.2993027,2.3276181,9.620045
884,1663243315186,-1.3136597,2.3276181,9.629616
885,1663243315186,-1.3136597,2.3467607,9.627223
886,1663243315191,-1.3686945,2.3515465,9.643972
887,1663243315191,-1.3998013,2.3659034,9.634401
888,1663243315196,-1.416551,2.3874388,9.639187
889,1663243315196,-1.4117653,2.3898315,9.6224375
890,1663243315201,-1.3830515,2.3922246,9.636794
891,1663243315201,-1.3806586,2.4017956,9.62483
892,1663243315206,-1.3663018,2.3826532,9.615258
893,1663243315206,-1.3519448,2.3898315,9.543175
894,1663243315211,-1.3663018,2.41376,9.490533
895,1663243315211,-1.3950156,2.4089742,9.452248
896,1663243315216,-1.375873,2.423331,9.356535
897,1663243315216,-1.4069797,2.41376,9.277572
898,1663243315221,-1.4045869,2.4329023,9.19143
899,1663243315221,-1.3974084,2.4305096,9.122038
900,1663243315226,-1.3974084,2.4448664,9.074182
901,1663243315226,-1.3830515,2.4448664,9.038289
902,1663243315231,-1.3926228,2.437688,9.002098
903,1663243315231,-1.3926228,2.4424736,8.9877405
904,1663243315236,-1.4213367,2.437688,9.004491
905,1663243315236,-1.4691931,2.4616163,9.019147
906,1663243315240,-1.5098711,2.452045,9.076574
907,1663243315240,-1.5672989,2.4711876,9.129216
908,1663243315246,-1.6103697,2.4592235,9.220144
909,1663243315246,-1.6680965,2.437688,9.311071
910,1663243315250,-1.7183458,2.4305096,9.399606
911,1663243315250,-1.794916,2.41376,9.507282
912,1663243315255,-1.8427725,2.373082,9.598509
913,1663243315255,-1.9025931,2.3874388,9.766006
914,1663243315260,-1.7566309,2.4616163,9.854541
915,1663243315260,-1.6800606,2.492723,9.818648
916,1663243315265,-1.6007984,2.5070798,9.801899
917,1663243315265,-1.591227,2.504687,9.835399
918,1663243315270,-1.6633109,2.4951158,9.856934
919,1663243315270,-1.7470596,2.492723,9.895219
920,1663243315275,-1.8403797,2.4831517,9.93829
921,1663243315275,-1.8762721,2.4592235,9.90479
922,1663243315280,-1.8978075,2.4616163,9.861719
923,1663243315280,-1.8116659,2.4329023,9.801899
924,1663243315285,-1.742274,2.4592235,9.78515
925,1663243315285,-1.715953,2.4544377,9.749257
926,1663243315290,-1.6369898,2.464009,9.708579
927,1663243315290,-1.5984055,2.4711876,9.65833
928,1663243315295,-1.5960127,2.4592235,9.62483
929,1663243315295,-1.579263,2.466402,9.584152
930,1663243315300,-1.5936198,2.4616163,9.524033
931,1663243315300,-1.5936198,2.423331,9.495318
932,1663243315305,-1.5625132,2.4065814,9.452248
933,1663243315305,-1.5744773,2.3491535,9.423533
934,1663243315309,-1.5601203,2.332404,9.4019985
935,1663243315310,-1.5577276,2.2989044,9.406784
936,1663243315314,-1.5553347,2.3060827,9.370892
937,1663243315314,-1.579263,2.3060827,9.380463
938,1663243315320,-1.634597,2.2917259,9.370892
939,1663243315320,-1.7279171,2.2725832,9.413962
940,1663243315324,-1.7470596,2.2701905,9.47139
941,1663243315324,-1.7973089,2.2151556,9.5048895
942,1663243315329,-1.8571295,2.1888344,9.557532
943,1663243315329,-1.8690935,2.179263,9.636794
944,1663243315334,-1.8858434,2.1314068,9.687043
945,1663243315334,-1.9456639,2.114657,9.749257
946,1663243315340,-2.012663,2.0931215,9.770792
947,1663243315340,-2.0605195,2.0572293,9.78515
948,1663243315344,-2.1394825,2.0377877,9.8066845
949,1663243315344,-2.2378874,2.0282164,9.789935
950,1663243315349,-2.3072793,2.0306091,9.782756
951,1663243315349,-2.3575284,2.033002,9.756435
952,1663243315354,-2.4077778,2.0162523,9.739685
953,1663243315354,-2.4364917,1.992324,9.687043
954,1663243315359,-2.4221346,2.0090737,9.639187
955,1663243315359,-2.4293132,2.0258234,9.593723
956,1663243315364,-2.4005992,2.033002,9.5048895
957,1663243315364,-2.4101706,2.0521445,9.4019985
958,1663243315369,-2.3383858,2.0931215,9.315857
959,1663243315369,-2.2881367,2.1242282,9.246465
960,1663243315374,-2.2235305,2.1601207,9.126823
961,1663243315374,-2.0964117,2.179263,9.02154
962,1663243315379,-1.9743778,2.1816561,8.925528
963,1663243315379,-1.837987,2.2055843,8.841779
964,1663243315384,-1.6800606,2.2606192,8.779566
965,1663243315384,-1.5553347,2.2606192,8.705388
966,1663243315389,-1.4859428,2.2965117,8.671888
967,1663243315389,-1.4380864,2.332404,8.638389
968,1663243315394,-1.39023,2.356332,8.645567
969,1663243315394,-1.3615161,2.370689,8.729316
970,1663243315399,-1.3256238,2.3539393,8.813065
971,1663243315399,-1.3256238,2.373082,8.925528
972,1663243315405,-1.3567305,2.3276181,9.002098
973,1663243315405,-1.39023,2.3300111,9.11486
974,1663243315410,-1.4524434,2.3228326,9.184252
975,1663243315410,-1.5170496,2.3395824,9.277572
976,1663243315413,-1.591227,2.3084757,9.2895355
977,1663243315414,-1.6848463,2.2917259,9.313464
978,1663243315419,-1.7877376,2.2677977,9.346964
979,1663243315419,-1.8906289,2.2701905,9.385248
980,1663243315424,-2.0174487,2.2342982,9.366106
981,1663243315424,-2.1418753,2.2199411,9.382855
982,1663243315429,-2.245066,2.1864417,9.406784
983,1663243315430,-2.309672,2.1649063,9.428319
984,1663243315434,-2.3886352,2.1625135,9.397213
985,1663243315434,-2.4269204,2.1385853,9.342177
986,1663243315439,-2.4580271,2.1194427,9.332606
987,1663243315439,-2.4939194,2.076372,9.299107
988,1663243315443,-2.539383,2.0644078,9.2488575
989,1663243315444,-2.5585256,2.076372,9.2177515
990,1663243315449,-2.5704896,2.0306091,9.181859
991,1663243315449,-2.5154548,1.9875383,9.203394
992,1663243315454,-2.4556344,1.9564316,9.198608
993,1663243315454,-2.3742783,1.9348962,9.301499
994,1663243315459,-2.3288147,1.8942182,9.390035
995,1663243315459,-2.2929223,1.9013968,9.459426
996,1663243315463,-2.2905295,1.8774685,9.5455675
997,1663243315463,-2.2761726,1.8990039,9.596116
998,1663243315468,-2.297708,1.8894325,9.65833
999,1663243315468,-2.3288147,1.8990039,9.710972
1000,1663243315474,-2.3790638,1.8894325,9.732507
1001,1663243315474,-2.3982065,1.87029,9.758828
1002,1663243315478,-2.4245276,1.8559331,9.804292
1003,1663243315478,-2.4580271,1.8343977,9.8473625
1004,1663243315483,-2.4508486,1.8272192,9.890433
1005,1663243315483,-2.4652054,1.8104694,9.876077
1006,1663243315487,-2.513062,1.8128623,9.878469
1007,1663243315487,-2.5298119,1.8559331,9.861719
1008,1663243315492,-2.580061,1.8774685,9.816256
1009,1663243315492,-2.632703,1.8942182,9.770792
1010,1663243315497,-2.6662025,1.9181465,9.75165
1011,1663243315497,-2.661417,1.9420747,9.710972
1012,1663243315502,-2.620739,1.9181465,9.660723
1013,1663243315502,-2.5992036,1.9420747,9.679865
1014,1663243315507,-2.5298119,1.9683957,9.646365
1015,1663243315507,-2.4508486,1.9827527,9.596116
1016,1663243315512,-2.4149563,2.0018952,9.526425
1017,1663243315512,-2.3670998,2.0210378,9.440284
1018,1663243315517,-2.3288147,2.033002,9.380463
1019,1663243315518,-2.283351,2.0401804,9.37807
1020,1663243315522,-2.204388,2.0715861,9.397213
1021,1663243315522,-2.1562324,2.0691934,9.363713
1022,1663243315527,-2.1131616,2.047359,9.31825
1023,1663243315527,-2.0700908,2.0668006,9.3613205
1024,1663243315532,-2.053341,2.0715861,9.433105
1025,1663243315532,-2.02702,2.047359,9.500104
1026,1663243315534,-2.0724835,2.0377877,9.528818
1027,1663243315539,-2.1155543,2.0377877,9.54796
1028,1663243315539,-2.1996021,2.0401804,9.6224375
1029,1663243315545,-2.2235305,2.0377877,9.672687
1030,1663243315545,-2.2618155,2.0162523,9.715757
1031,1663243315550,-2.297708,2.0114665,9.725328
1032,1663243315550,-2.3862424,1.9803598,9.742078
1033,1663243315555,-2.4340987,1.96361,9.7348995
1034,1663243315555,-2.4939194,1.951646,9.720543
1035,1663243315560,-2.5345974,1.8966111,9.706186
1036,1663243315560,-2.5609183,1.8655044,9.696614
1037,1663243315564,-2.6303103,1.8559331,9.677472
1038,1663243315565,-2.661417,1.8463618,9.687043
1039,1663243315571,-2.7188447,1.829612,9.682258
1040,1663243315571,-2.755036,1.8320048,9.691829
1041,1663243315576,-2.7188447,1.8846469,9.643972
1042,1663243315608,-2.759822,1.8798612,9.612865
1043,1663243315609,-2.702095,1.8870398,9.564711
1044,1663243315609,-2.6398816,1.8894325,9.516854
1045,1663243315609,-2.5609183,1.9253249,9.468997
1046,1663243315609,-2.472384,1.9229321,9.461819
1047,1663243315609,-2.3623142,1.9444675,9.37807
1048,1663243315609,-2.3024936,2.004288,9.315857
1049,1663243315609,-2.2211375,2.0282164,9.241679
1050,1663243315609,-2.1107686,2.033002,9.15793
1051,1663243315609,-2.0509481,2.0521445,9.11486
1052,1663243315609,-1.986342,2.0691934,9.071789
1053,1663243315609,-1.9504496,2.1026928,9.014361
1054,1663243315609,-1.9384855,2.11705,8.99492
1055,1663243315609,-1.9241285,2.1003,8.96142
1056,1663243315614,-1.9289142,2.0835502,8.887242
1057,1663243315614,-1.9360926,2.0907288,8.870493
1058,1663243315619,-1.9384855,2.0979073,8.863315
1059,1663243315619,-2.012663,2.1003,8.872886
1060,1663243315623,-2.0437696,2.0859432,8.870493
1061,1663243315623,-2.0820549,2.0787647,8.882457
1062,1663243315628,-2.1394825,2.044966,8.899206
1063,1663243315628,-2.2594228,2.0377877,8.892028
1064,1663243315633,-2.324029,2.018645,8.937491
1065,1663243315633,-2.4197419,1.9540387,8.970991
1066,1663243315642,-2.4580271,1.9301106,9.009576
1067,1663243315642,-2.5106692,1.9085752,9.038289
1068,1663243315644,-2.55374,1.8966111,9.08136
1069,1663243315644,-2.632703,1.8966111,9.110074
1070,1663243315648,-2.690131,1.9013968,9.172287
1071,1663243315648,-2.7451658,1.8870398,9.236894
1072,1663243315654,-2.757429,1.9085752,9.2488575
1073,1663243315654,-2.7646074,1.8870398,9.253643
1074,1663243315658,-2.7355945,1.8678972,9.268001
1075,1663243315658,-2.6997023,1.8487546,9.296714
1076,1663243315663,-2.6518457,1.8320048,9.301499
1077,1663243315663,-2.6231318,1.8056837,9.28475
1078,1663243315668,-2.594418,1.7913269,9.282357
1079,1663243315668,-2.5752754,1.8200407,9.270393
1080,1663243315673,-2.5513473,1.8200407,9.246465
1081,1663243315673,-2.46042,1.8008982,9.253643
1082,1663243315678,-2.4388845,1.8128623,9.263215
1083,1663243315679,-2.4197419,1.8176479,9.236894
1084,1663243315683,-2.4101706,1.7865412,9.268001
1085,1663243315684,-2.4245276,1.7650058,9.279964
1086,1663243315689,-2.4293132,1.7482561,9.334999
1087,1663243315689,-2.4149563,1.7386848,9.399606
1088,1663243315694,-2.4077778,1.695614,9.464211
1089,1663243315694,-2.4125633,1.7075781,9.492926
1090,1663243315699,-2.4149563,1.695614,9.524033
1091,1663243315699,-2.393421,1.7051853,9.559925
1092,1663243315704,-2.4221346,1.7243278,9.579367
1093,1663243315704,-2.44367,1.7362919,9.576974
1094,1663243315708,-2.4652054,1.721935,9.617652
1095,1663243315708,-2.4747767,1.7291135,9.64158
1096,1663243315713,-2.4699912,1.7338991,9.679865
1097,1663243315713,-2.4364917,1.7338991,9.667901
1098,1663243315718,-2.4412773,1.7386848,9.675079
1099,1663243315718,-2.44367,1.7458632,9.703794
1100,1663243315723,-2.4628127,1.7530417,9.720543
1101,1663243315723,-2.4915266,1.7841483,9.739685
1102,1663243315728,-2.5274189,1.7961125,9.703794
1103,1663243315728,-2.541776,1.8272192,9.713365
1104,1663243315733,-2.5322046,1.8559331,9.713365
1105,1663243315733,-2.5369902,1.8511474,9.672687
1106,1663243315738,-2.539383,1.8559331,9.682258
1107,1663243315739,-2.539383,1.8583258,9.672687
1108,1663243315743,-2.5633113,1.8583258,9.679865
1109,1663243315743,-2.5609183,1.8655044,9.665508
1110,1663243315748,-2.5752754,1.8726828,9.651151
1111,1663243315748,-2.6159534,1.8918254,9.655936
1112,1663243315752,-2.6350958,1.8774685,9.651151
1113,1663243315753,-2.6566312,1.8511474,9.64158
1114,1663243315758,-2.7236304,1.8391833,9.6631155
1115,1663243315758,-2.7526433,1.8248264,9.660723
1116,1663243315762,-2.7502506,1.8176479,9.6942215
1117,1663243315762,-2.7909286,1.8080766,9.715757
1118,1663243315767,-2.812464,1.7913269,9.758828
1119,1663243315768,-2.824428,1.7673986,9.742078
1120,1663243315772,-2.8435707,1.7506489,9.737292
1121,1663243315773,-2.8172495,1.7362919,9.758828
1122,1663243315777,-2.8292136,1.7315062,9.75165
1123,1663243315777,-2.8076782,1.721935,9.766006
1124,1663243315782,-2.7861428,1.7171494,9.758828
1125,1663243315782,-2.742773,1.7291135,9.722936
1126,1663243315796,-2.690131,1.7315062,9.710972
1127,1663243315796,-2.6518457,1.7243278,9.6631155
1128,1663243315796,-2.6039891,1.7315062,9.6224375
1129,1663243315797,-2.5728827,1.7147565,9.648758
1130,1663243315797,-2.44367,1.788934,9.648758
1131,1663243315797,-2.3001008,1.8391833,9.528818
1132,1663243315802,-2.228316,1.87029,9.37807
1133,1663243315802,-2.216352,1.8870398,9.265608
1134,1663243315807,-2.2594228,1.8966111,9.196216
1135,1663243315807,-2.2737796,1.8894325,9.220144
1136,1663243315811,-2.3072793,1.8894325,9.2177515
1137,1663243315812,-2.2642083,1.8726828,9.2177515
1138,1663243315817,-2.2211375,1.8655044,9.212965
1139,1663243315817,-2.2067807,1.8918254,9.212965
1140,1663243315822,-2.2139592,1.8990039,9.253643
1141,1663243315822,-2.242673,1.9133608,9.272786
1142,1663243315827,-2.309672,1.9420747,9.282357
1143,1663243315827,-2.391028,1.977967,9.299107
1144,1663243315832,-2.4340987,1.9995024,9.291928
1145,1663243315832,-2.4819553,1.966003,9.339785
1146,1663243315839,-2.5082762,1.9468603,9.327821
1147,1663243315839,-2.501098,1.910968,9.308679
1148,1663243315841,-2.539383,1.8966111,9.291928
1149,1663243315841,-2.5489542,1.8894325,9.2895355
1150,1663243315846,-2.5896323,1.8846469,9.268001
1151,1663243315846,-2.5824537,1.8846469,9.263215
1152,1663243315851,-2.5968108,1.8870398,9.25125
1153,1663243315851,-2.6303103,1.8678972,9.253643
1154,1663243315857,-2.6135604,1.8487546,9.239286
1155,1663243315857,-2.620739,1.8511474,9.253643
1156,1663243315861,-2.6350958,1.8535402,9.265608
1157,1663243315862,-2.620739,1.8367904,9.2488575
1158,1663243315865,-2.6015964,1.8391833,9.220144
1159,1663243315865,-2.5968108,1.8008982,9.205787
1160,1663243315871,-2.5992036,1.7841483,9.186645
1161,1663243315871,-2.5680969,1.7865412,9.196216
1162,1663243315877,-2.55374,1.7721843,9.2177515
1163,1663243315877,-2.5345974,1.7482561,9.227323
1164,1663243315881,-2.501098,1.7530417,9.277572
1165,1663243315881,-2.4508486,1.7506489,9.303893
1166,1663243315886,-2.4197419,1.7291135,9.299107
1167,1663243315886,-2.3718855,1.7482561,9.332606
1168,1663243315891,-2.3431716,1.7626129,9.339785
1169,1663243315891,-2.3431716,1.7578273,9.363713
1170,1663243315896,-2.352743,1.7650058,9.392427
1171,1663243315896,-2.376671,1.7793628,9.442677
1172,1663243315901,-2.4029922,1.7554345,9.468997
1173,1663243315902,-2.4197419,1.7434704,9.495318
1174,1663243315906,-2.4556344,1.7626129,9.524033
1175,1663243315906,-2.5178475,1.7554345,9.538389
1176,1663243315911,-2.5561328,1.7291135,9.574581
1177,1663243315911,-2.5609183,1.7434704,9.593723
1178,1663243315915,-2.5728827,1.7315062,9.588938
1179,1663243315916,-2.594418,1.7195421,9.574581
1180,1663243315921,-2.6039891,1.7458632,9.516854
1181,1663243315921,-2.5872395,1.7602202,9.507282
1182,1663243315925,-2.592025,1.7650058,9.490533
1183,1663243315925,-2.5848467,1.7650058,9.457033
1184,1663243315930,-2.5872395,1.7745771,9.459426
1185,1663243315931,-2.5441687,1.7769699,9.425926
1186,1663243315937,-2.5106692,1.8056837,9.409177
1187,1663243315937,-2.484348,1.803291,9.366106
1188,1663243315941,-2.4580271,1.8008982,9.373284
1189,1663243315941,-2.4364917,1.8224336,9.34457
1190,1663243315946,-2.3623142,1.8248264,9.3613205
1191,1663243315946,-2.335993,1.8463618,9.339785
1192,1663243315951,-2.3288147,1.8367904,9.330214
1193,1663243315951,-2.3312075,1.8320048,9.3613205
1194,1663243315955,-2.312065,1.8367904,9.332606
1195,1663243315955,-2.3216362,1.843969,9.366106
1196,1663243315960,-2.3192434,1.8272192,9.39482
1197,1663243315961,-2.352743,1.8056837,9.445069
1198,1663243315965,-2.3407788,1.7745771,9.48814
1199,1663243315965,-2.352743,1.7745771,9.519247
1200,1663243315970,-2.3814569,1.7697915,9.54796
1201,1663243315971,-2.3982065,1.7793628,9.531211
1202,1663243315975,-2.3838496,1.7865412,9.581759
1203,1663243315975,-2.3288147,1.8607187,9.574581
1204,1663243315981,-2.3001008,1.8870398,9.500104
1205,1663243315981,-2.2809582,1.8846469,9.39482
1206,1663243315985,-2.3144577,1.8750757,9.308679
1207,1663243315985,-2.364707,1.8248264,9.325428
1208,1663243315991,-2.4245276,1.7865412,9.325428
1209,1663243315991,-2.4364917,1.7650058,9.313464
1210,1663243315995,-2.446063,1.7626129,9.296714
1211,1663243315995,-2.4388845,1.7291135,9.25125
1212,1663243316001,-2.4125633,1.7506489,9.227323
1213,1663243316001,-2.4628127,1.7554345,9.244072
1214,1663243316004,-2.4699912,1.7793628,9.196216
1215,1663243316004,-2.5226333,1.803291,9.160323
1216,1663243316010,-2.5369902,1.8200407,9.112467
1217,1663243316010,-2.4963121,1.8559331,9.095717
1218,1663243316015,-2.4269204,1.8846469,9.028718
1219,1663243316015,-2.3670998,1.8966111,8.959027
1220,1663243316019,-2.3216362,1.8822541,8.887242
1221,1663243316019,-2.3072793,1.8655044,8.887242
1222,1663243316024,-2.3288147,1.8655044,8.899206
1223,1663243316024,-2.3431716,1.7865412,9.006884
1224,1663243316029,-2.3048863,1.815255,9.181859
1225,1663243316029,-2.184946,1.8655044,9.275179
1226,1663243316034,-2.0844476,1.8870398,9.201001
1227,1663243316034,-2.012663,1.9133608,9.117252
1228,1663243316039,-2.0030916,1.9396819,9.067003
1229,1663243316039,-1.9695921,1.9396819,9.057432
1230,1663243316045,-2.0748763,1.937289,8.9877405
1231,1663243316045,-2.1538396,1.9157536,8.975777
1232,1663243316050,-2.2307088,1.8774685,8.954242
1233,1663243316050,-2.2881367,1.8320048,8.999705
1234,1663243316055,-2.2713869,1.7817556,9.119645
1235,1663243316055,-2.2785654,1.7530417,9.19143
1236,1663243316060,-2.3024936,1.7410775,9.201001
1237,1663243316060,-2.3072793,1.7338991,9.239286
1238,1663243316063,-2.3503501,1.7769699,9.306286
1239,1663243316064,-2.3694925,1.8056837,9.363713
1240,1663243316070,-2.3575284,1.8008982,9.334999
1241,1663243316070,-2.335993,1.8343977,9.272786
1242,1663243316075,-2.3192434,1.8487546,9.210572
1243,1663243316075,-2.3072793,1.8559331,9.186645
1244,1663243316098,-2.3168504,1.7961125,9.184252
1245,1663243316098,-2.3383858,1.788934,9.19143
1246,1663243316098,-2.352743,1.7769699,9.19143
1247,1663243316098,-2.364707,1.7913269,9.212965
1248,1663243316098,-2.3479571,1.7745771,9.201001
1249,1663243316098,-2.3670998,1.7793628,9.227323
1250,1663243316098,-2.3623142,1.7769699,9.282357
1251,1663243316098,-2.3694925,1.7721843,9.337392
1252,1663243316099,-2.3551357,1.7721843,9.413962
1253,1663243316099,-2.3982065,1.7673986,9.48814
1254,1663243316103,-2.4029922,1.7697915,9.557532
1255,1663243316103,-2.4029922,1.7793628,9.612865
1256,1663243316109,-2.3862424,1.7602202,9.665508
1257,1663243316109,-2.4221346,1.721935,9.758828
1258,1663243316113,-2.4747767,1.681257,9.8066845
1259,1663243316113,-2.539383,1.6645073,9.864112
1260,1663243316118,-2.6183462,1.6669,9.911968
1261,1663243316118,-2.6542385,1.654936,9.928719
1262,1663243316123,-2.702095,1.6525432,9.933504
1263,1663243316123,-2.757429,1.6501503,9.926326
1264,1663243316127,-2.8220353,1.6310078,9.92154
1265,1663243316127,-2.8483562,1.6286149,9.883255
1266,1663243316132,-2.9033911,1.6334006,9.876077
1267,1663243316133,-2.9440691,1.6477575,9.82822
1268,1663243316137,-2.9560332,1.6525432,9.75165
1269,1663243316137,-2.948855,1.6669,9.710972
1270,1663243316143,-2.958426,1.6740786,9.646365
1271,1663243316143,-2.9368906,1.6692929,9.612865
1272,1663243316148,-2.932105,1.6669,9.557532
1273,1663243316148,-2.908177,1.6860427,9.516854
1274,1663243316153,-2.8555348,1.6884354,9.45464
1275,1663243316153,-2.8292136,1.6884354,9.385248
1276,1663243316157,-2.759822,1.7171494,9.334999
1277,1663243316157,-2.728416,1.7506489,9.270393
1278,1663243316163,-2.6709883,1.7626129,9.215358
1279,1663243316163,-2.6279175,1.7769699,9.150752
1280,1663243316168,-2.5776682,1.7913269,9.119645
1281,1663243316168,-2.539383,1.7961125,9.088538
1282,1663243316172,-2.5226333,1.8008982,9.083753
1283,1663243316173,-2.4652054,1.7865412,9.078967
1284,1663243316177,-2.4532413,1.7913269,9.112467
1285,1663243316177,-2.4484558,1.7985053,9.169894
1286,1663243316182,-2.4364917,1.7554345,9.19143
1287,1663243316182,-2.44367,1.7721843,9.2488575
1288,1663243316188,-2.417349,1.7506489,9.260822
1289,1663243316188,-2.4388845,1.7434704,9.31825
1290,1663243316192,-2.4580271,1.721935,9.37807
1291,1663243316192,-2.4819553,1.7099708,9.423533
1292,1663243316198,-2.4915266,1.7075781,9.459426
1293,1663243316198,-2.4556344,1.6860427,9.535996
1294,1663243316203,-2.44367,1.6692929,9.557532
1295,1663243316203,-2.431706,1.6286149,9.569795
1296,1663243316207,-2.4077778,1.6573287,9.586545
1297,1663243316207,-2.446063,1.681257,9.574581
1298,1663243316212,-2.4340987,1.6788642,9.584152
1299,1663243316213,-2.4340987,1.6932211,9.574581
1300,1663243316217,-2.4149563,1.6884354,9.550353
1301,1663243316217,-2.376671,1.6860427,9.526425
1302,1663243316223,-2.3288147,1.7099708,9.52164
1303,1663243316223,-2.3407788,1.7075781,9.447462
1304,1663243316228,-2.2881367,1.7291135,9.404391
1305,1663243316228,-2.2785654,1.7386848,9.366106
1306,1663243316232,-2.2642083,1.7530417,9.323035
1307,1663243316232,-2.2402802,1.7482561,9.28475
1308,1663243316237,-2.2354946,1.7745771,9.239286
1309,1663243316237,-2.228316,1.7721843,9.2177515
1310,1663243316242,-2.2115662,1.7817556,9.193823
1311,1663243316242,-2.245066,1.7745771,9.181859
1312,1663243316247,-2.2307088,1.7817556,9.186645
1313,1663243316247,-2.2594228,1.7937196,9.179466
1314,1663243316252,-2.2809582,1.788934,9.160323
1315,1663243316252,-2.3288147,1.8056837,9.124431
1316,1663243316257,-2.3383858,1.7985053,9.107681
1317,1663243316257,-2.3623142,1.7769699,9.076574
1318,1663243316266,-2.3479571,1.7769699,9.035896
1319,1663243316266,-2.3670998,1.7626129,9.031111
1320,1663243316267,-2.3670998,1.7913269,9.031111
1321,1663243316267,-2.3862424,1.7697915,8.975777
1322,1663243316271,-2.4101706,1.7578273,8.942277
1323,1663243316271,-2.3838496,1.7793628,8.96142
1324,1663243316276,-2.3814569,1.7458632,8.997313
1325,1663243316276,-2.3862424,1.7362919,9.062218
1326,1663243316281,-2.3742783,1.7362919,9.122038
1327,1663243316281,-2.3479571,1.7123637,9.189037
1328,1663243316286,-2.3264217,1.721935,9.2177515
1329,1663243316286,-2.3431716,1.7195421,9.270393
1330,1663243316291,-2.3670998,1.7434704,9.282357
1331,1663243316291,-2.3958137,1.7434704,9.311071
1332,1663243316296,-2.4005992,1.7554345,9.325428
1333,1663243316296,-2.4005992,1.7386848,9.366106
1334,1663243316301,-2.4101706,1.7123637,9.428319
1335,1663243316301,-2.4340987,1.695614,9.442677
1336,1663243316305,-2.4293132,1.6836498,9.485747
1337,1663243316306,-2.4364917,1.6764714,9.54796
1338,1663243316310,-2.46042,1.6645073,9.596116
1339,1663243316310,-2.4771698,1.6621144,9.605687
1340,1663243316316,-2.5058835,1.6573287,9.632009
1341,1663243316316,-2.5465615,1.6692929,9.617652
1342,1663243316320,-2.5513473,1.6669,9.600902
1343,1663243316321,-2.5680969,1.6645073,9.574581
1344,1663243316325,-2.592025,1.6716857,9.574581
1345,1663243316325,-2.5968108,1.6740786,9.524033
1346,1663243316330,-2.608775,1.6597216,9.495318
1347,1663243316330,-2.6255248,1.6740786,9.502497
1348,1663243316335,-2.6111677,1.7075781,9.461819
1349,1663243316335,-2.6542385,1.7027924,9.406784
1350,1663243316340,-2.649453,1.7171494,9.399606
1351,1663243316340,-2.6063821,1.7386848,9.366106
1352,1663243316345,-2.5776682,1.7291135,9.337392
1353,1663243316345,-2.5585256,1.7434704,9.299107
1354,1663243316350,-2.4939194,1.7458632,9.236894
1355,1663243316350,-2.472384,1.7410775,9.19143
1356,1663243316355,-2.4412773,1.7578273,9.184252
1357,1663243316355,-2.4269204,1.7745771,9.155538
1358,1663243316360,-2.3814569,1.7721843,9.179466
1359,1663243316361,-2.376671,1.7673986,9.165109
1360,1663243316366,-2.3694925,1.7673986,9.169894
1361,1663243316366,-2.364707,1.7554345,9.153145
1362,1663243316370,-2.3264217,1.7338991,9.138788
1363,1663243316370,-2.2857437,1.7338991,9.1770735
1364,1663243316375,-2.2809582,1.7003996,9.203394
1365,1663243316375,-2.2666013,1.6884354,9.236894
1366,1663243316380,-2.2618155,1.6884354,9.306286
1367,1663243316380,-2.2905295,1.6884354,9.363713
1368,1663243316385,-2.2785654,1.6884354,9.435498
1369,1663243316385,-2.2881367,1.6692929,9.497711
1370,1663243316390,-2.297708,1.6477575,9.512068
1371,1663243316390,-2.3001008,1.6381862,9.581759
1372,1663243316395,-2.3144577,1.6118652,9.596116
1373,1663243316395,-2.3072793,1.6070795,9.632009
1374,1663243316401,-2.3072793,1.5855441,9.620045
1375,1663243316401,-2.3336003,1.5759728,9.596116
1376,1663243316405,-2.3694925,1.5831513,9.584152
1377,1663243316405,-2.391028,1.5783657,9.572187
1378,1663243316410,-2.4340987,1.5783657,9.531211
1379,1663243316410,-2.46042,1.5927225,9.492926
1380,1663243316414,-2.484348,1.6022938,9.445069
1381,1663243316414,-2.5082762,1.6238292,9.385248
1382,1663243316419,-2.5704896,1.6142579,9.368499
1383,1663243316419,-2.5776682,1.6142579,9.351749
1384,1663243316425,-2.5968108,1.6310078,9.301499
1385,1663243316425,-2.6470602,1.6334006,9.2488575
1386,1663243316429,-2.620739,1.6022938,9.232108
1387,1663243316429,-2.5968108,1.6286149,9.220144
1388,1663243316434,-2.6015964,1.6381862,9.227323
1389,1663243316434,-2.620739,1.6310078,9.212965
1390,1663243316439,-2.5992036,1.6597216,9.203394
1391,1663243316439,-2.580061,1.6453646,9.2177515
1392,1663243316445,-2.5752754,1.6477575,9.22493
1393,1663243316445,-2.5106692,1.6357933,9.272786
1394,1663243316450,-2.4987051,1.6238292,9.31825
1395,1663243316450,-2.4532413,1.6142579,9.370892
1396,1663243316454,-2.446063,1.6453646,9.452248
1397,1663243316454,-2.4125633,1.6238292,9.524033
1398,1663243316459,-2.3862424,1.6166508,9.576974
1399,1663243316460,-2.3670998,1.5903298,9.639187
1400,1663243316466,-2.3742783,1.6094723,9.691829
1401,1663243316466,-2.3575284,1.6046867,9.730114
1402,1663243316470,-2.3479571,1.5831513,9.7348995
1403,1663243316470,-2.376671,1.5999011,9.732507
1404,1663243316474,-2.3886352,1.5855441,9.754043
1405,1663243316474,-2.405385,1.5664015,9.749257
1406,1663243316479,-2.3958137,1.5544374,9.77797
1407,1663243316479,-2.391028,1.5376877,9.773185
1408,1663243316485,-2.4005992,1.5257236,9.742078
1409,1663243316485,-2.4101706,1.5544374,9.732507
1410,1663243316490,-2.4029922,1.547259,9.689436
1411,1663243316490,-2.4364917,1.5568303,9.6224375
1412,1663243316493,-2.446063,1.5640087,9.540782
1413,1663243316493,-2.4675984,1.5807585,9.502497
1414,1663243316498,-2.4675984,1.5783657,9.440284
1415,1663243316498,-2.484348,1.5927225,9.397213
1416,1663243316504,-2.4819553,1.6046867,9.346964
1417,1663243316504,-2.5154548,1.6142579,9.325428
1418,1663243316509,-2.4915266,1.6046867,9.306286
1419,1663243316509,-2.4915266,1.6310078,9.260822
1420,1663243316513,-2.501098,1.6501503,9.229715
1421,1663243316513,-2.4771698,1.6357933,9.227323
1422,1663243316518,-2.4556344,1.6286149,9.244072
1423,1663243316518,-2.4556344,1.6525432,9.299107
1424,1663243316523,-2.4532413,1.6357933,9.306286
1425,1663243316523,-2.4532413,1.6453646,9.342177
1426,1663243316528,-2.4508486,1.6429719,9.370892
1427,1663243316528,-2.4508486,1.6334006,9.452248
1428,1663243316534,-2.4388845,1.5951154,9.497711
1429,1663243316534,-2.4340987,1.6094723,9.509675
1430,1663243316538,-2.4867408,1.5831513,9.584152
1431,1663243316538,-2.4819553,1.5927225,9.612865
1432,1663243316543,-2.4747767,1.6070795,9.6224375
1433,1663243316544,-2.5034907,1.5807585,9.64158
1434,1663243316548,-2.539383,1.6070795,9.665508
1435,1663243316548,-2.565704,1.5927225,9.65833
1436,1663243316553,-2.5896323,1.5855441,9.655936
1437,1663243316553,-2.5848467,1.5855441,9.64158
1438,1663243316558,-2.6111677,1.5783657,9.591331
1439,1663243316558,-2.592025,1.5616158,9.591331
1440,1663243316564,-2.5848467,1.5855441,9.526425
1441,1663243316564,-2.5896323,1.5783657,9.4737835
1442,1663243316571,-2.5752754,1.5616158,9.413962
1443,1663243316571,-2.5680969,1.57358,9.373284
1444,1663243316573,-2.580061,1.5831513,9.354142
1445,1663243316573,-2.539383,1.5855441,9.31825
1446,1663243316585,-2.5226333,1.6118652,9.287143
1447,1663243316585,-2.4819553,1.6214365,9.2488575
1448,1663243316585,-2.4652054,1.6429719,9.253643
1449,1663243316588,-2.4508486,1.640579,9.236894
1450,1663243316588,-2.4293132,1.6429719,9.220144
1451,1663243316593,-2.4197419,1.6453646,9.22493
1452,1663243316593,-2.3814569,1.6453646,9.215358
1453,1663243316597,-2.376671,1.6286149,9.227323
1454,1663243316597,-2.3383858,1.6381862,9.2488575
1455,1663243316602,-2.3264217,1.6238292,9.279964
1456,1663243316603,-2.312065,1.6142579,9.31825
1457,1663243316607,-2.3001008,1.6166508,9.339785
1458,1663243316607,-2.2857437,1.640579,9.39482
1459,1663243316612,-2.3001008,1.6214365,9.392427
1460,1663243316612,-2.2857437,1.6190436,9.478569
1461,1663243316617,-2.2809582,1.5999011,9.495318
1462,1663243316617,-2.2666013,1.5903298,9.52164
1463,1663243316622,-2.2737796,1.5975082,9.492926
1464,1663243316622,-2.324029,1.5855441,9.47139
1465,1663243316628,-2.3551357,1.5855441,9.500104
1466,1663243316628,-2.4005992,1.5999011,9.500104
1467,1663243316632,-2.4364917,1.6022938,9.531211
1468,1663243316632,-2.4412773,1.5831513,9.552746
1469,1663243316638,-2.4652054,1.559223,9.588938
1470,1663243316638,-2.4963121,1.5640087,9.605687
1471,1663243316643,-2.5226333,1.5568303,9.605687
1472,1663243316643,-2.5513473,1.5400804,9.617652
1473,1663243316647,-2.5585256,1.5376877,9.60808
1474,1663243316647,-2.5609183,1.5496517,9.588938
1475,1663243316652,-2.5824537,1.5783657,9.5455675
1476,1663243316652,-2.5704896,1.559223,9.516854
1477,1663243316657,-2.5872395,1.5927225,9.524033
1478,1663243316657,-2.5848467,1.5927225,9.514461
1479,1663243316662,-2.5848467,1.5927225,9.449855
1480,1663243316662,-2.5633113,1.6046867,9.440284
1481,1663243316667,-2.565704,1.5999011,9.385248
1482,1663243316667,-2.5441687,1.5999011,9.3613205
1483,1663243316671,-2.5345974,1.6166508,9.332606
1484,1663243316672,-2.5274189,1.6214365,9.313464
1485,1663243316677,-2.5441687,1.6262221,9.287143
1486,1663243316677,-2.5226333,1.6453646,9.282357
1487,1663243316681,-2.5034907,1.6477575,9.282357
1488,1663243316681,-2.4819553,1.6525432,9.31825
1489,1663243316687,-2.4915266,1.6669,9.303893
1490,1663243316687,-2.4963121,1.6764714,9.291928
1491,1663243316691,-2.4556344,1.6525432,9.275179
1492,1663243316692,-2.4628127,1.6597216,9.2488575
1493,1663243316697,-2.4556344,1.6525432,9.239286
1494,1663243316697,-2.4269204,1.654936,9.222537
1495,1663243316701,-2.405385,1.6238292,9.222537
1496,1663243316702,-2.417349,1.6310078,9.260822
1497,1663243316706,-2.4005992,1.5999011,9.299107
1498,1663243316706,-2.4005992,1.6166508,9.306286
1499,1663243316712,-2.3718855,1.6166508,9.346964
1500,1663243316712,-2.3694925,1.6070795,9.399606
1501,1663243316716,-2.352743,1.5879369,9.416355
1502,1663243316717,-2.352743,1.57358,9.449855
1503,1663243316721,-2.3551357,1.5975082,9.466604
1504,1663243316721,-2.3575284,1.5759728,9.485747
1505,1663243316727,-2.3575284,1.5783657,9.502497
1506,1663243316727,-2.393421,1.6022938,9.526425
1507,1663243316731,-2.3814569,1.5783657,9.535996
1508,1663243316731,-2.4077778,1.5711871,9.531211
1509,1663243316736,-2.4149563,1.5759728,9.538389
1510,1663243316736,-2.446063,1.57358,9.524033
1511,1663243316741,-2.4556344,1.5711871,9.512068
1512,1663243316741,-2.5154548,1.5664015,9.524033
1513,1663243316747,-2.5034907,1.5664015,9.48814
1514,1663243316747,-2.513062,1.5640087,9.428319
1515,1663243316751,-2.4939194,1.532902,9.39482
1516,1663243316751,-2.4819553,1.5640087,9.351749
1517,1663243316756,-2.4771698,1.5711871,9.323035
1518,1663243316756,-2.5082762,1.5759728,9.253643
1519,1663243316761,-2.4771698,1.6022938,9.25125
1520,1663243316761,-2.4580271,1.6166508,9.236894
1521,1663243316766,-2.4699912,1.6022938,9.232108
1522,1663243316766,-2.4508486,1.5975082,9.246465
1523,1663243316770,-2.44367,1.5927225,9.246465
1524,1663243316771,-2.4245276,1.5927225,9.291928
1525,1663243316775,-2.4101706,1.5831513,9.311071
1526,1663243316775,-2.405385,1.6118652,9.315857
1527,1663243316781,-2.4005992,1.6166508,9.327821
1528,1663243316781,-2.417349,1.6477575,9.373284
1529,1663243316786,-2.417349,1.6525432,9.358928
1530,1663243316786,-2.417349,1.6764714,9.375677
1531,1663243316790,-2.4197419,1.6501503,9.387642
1532,1663243316790,-2.4149563,1.6310078,9.409177
1533,1663243316795,-2.3814569,1.6070795,9.392427
1534,1663243316795,-2.3670998,1.6214365,9.404391
1535,1663243316800,-2.3742783,1.6190436,9.366106
1536,1663243316800,-2.4077778,1.6094723,9.346964
1537,1663243316805,-2.431706,1.6357933,9.373284
1538,1663243316805,-2.4652054,1.6429719,9.363713
1539,1663243316810,-2.484348,1.6525432,9.351749
1540,1663243316810,-2.5178475,1.6477575,9.303893
1541,1663243316815,-2.5274189,1.6788642,9.299107
1542,1663243316815,-2.5489542,1.6740786,9.258429
1543,1663243316820,-2.5776682,1.6621144,9.244072
1544,1663243316820,-2.5728827,1.6453646,9.215358
1545,1663243316825,-2.5489542,1.6429719,9.229715
1546,1663243316825,-2.541776,1.6310078,9.246465
1547,1663243316829,-2.5369902,1.6022938,9.287143
1548,1663243316829,-2.5106692,1.5951154,9.275179
1549,1663243316834,-2.484348,1.5951154,9.308679
1550,1663243316834,-2.4580271,1.5687944,9.363713
1551,1663243316840,-2.4699912,1.5927225,9.387642
1552,1663243316840,-2.446063,1.6118652,9.423533
1553,1663243316845,-2.4364917,1.6022938,9.47139
1554,1663243316845,-2.431706,1.5927225,9.495318
1555,1663243316849,-2.417349,1.5759728,9.562318
1556,1663243316849,-2.4101706,1.5807585,9.552746
1557,1663243316854,-2.446063,1.5759728,9.579367
1558,1663243316854,-2.4675984,1.5903298,9.603294
1559,1663243316860,-2.5058835,1.5807585,9.593723
1560,1663243316860,-2.4939194,1.5927225,9.596116
1561,1663243316864,-2.5513473,1.5975082,9.596116
1562,1663243316864,-2.565704,1.5855441,9.559925
1563,1663243316869,-2.5896323,1.6094723,9.519247
1564,1663243316869,-2.5992036,1.6214365,9.514461
1565,1663243316874,-2.620739,1.6070795,9.480962
1566,1663243316874,-2.6159534,1.5999011,9.435498
1567,1663243316879,-2.608775,1.6022938,9.425926
1568,1663243316879,-2.620739,1.5927225,9.385248
1569,1663243316884,-2.6303103,1.6022938,9.368499
1570,1663243316884,-2.6470602,1.6238292,9.325428
1571,1663243316889,-2.632703,1.6334006,9.327821
1572,1663243316889,-2.6303103,1.6501503,9.323035
1573,1663243316894,-2.608775,1.6645073,9.306286
1574,1663243316894,-2.5680969,1.6860427,9.330214
1575,1663243316899,-2.5298119,1.7051853,9.34457
1576,1663243316899,-2.5178475,1.7267207,9.358928
1577,1663243316904,-2.4652054,1.7171494,9.409177
1578,1663243316904,-2.44367,1.7099708,9.413962
1579,1663243316909,-2.393421,1.695614,9.425926
1580,1663243316909,-2.376671,1.681257,9.435498
1581,1663243316914,-2.3455644,1.6884354,9.399606
1582,1663243316914,-2.3048863,1.6716857,9.399606
1583,1663243316918,-2.2905295,1.6645073,9.409177
1584,1663243316918,-2.2737796,1.6286149,9.409177
1585,1663243316924,-2.312065,1.6453646,9.399606
1586,1663243316924,-2.3336003,1.640579,9.390035
1587,1663243316929,-2.3431716,1.6357933,9.375677
1588,1663243316929,-2.3982065,1.6453646,9.368499
1589,1663243316934,-2.4077778,1.6262221,9.366106
1590,1663243316934,-2.4340987,1.6142579,9.349357
1591,1663243316939,-2.4412773,1.6190436,9.320642
1592,1663243316939,-2.4556344,1.5951154,9.301499
1593,1663243316944,-2.484348,1.5975082,9.291928
1594,1663243316944,-2.4819553,1.57358,9.291928
1595,1663243316949,-2.5082762,1.5855441,9.299107
1596,1663243316950,-2.5274189,1.5711871,9.301499
1597,1663243316954,-2.5226333,1.5544374,9.31825
1598,1663243316954,-2.541776,1.547259,9.323035
1599,1663243316959,-2.5465615,1.5520446,9.34457
1600,1663243316959,-2.5585256,1.547259,9.339785
1601,1663243316964,-2.5680969,1.5400804,9.349357
1602,1663243316964,-2.580061,1.518545,9.370892
1603,1663243316969,-2.5704896,1.5305092,9.368499
1604,1663243316969,-2.5633113,1.518545,9.399606
1605,1663243316974,-2.5680969,1.5257236,9.423533
1606,1663243316974,-2.5633113,1.5305092,9.461819
1607,1663243316979,-2.5776682,1.5233307,9.495318
1608,1663243316979,-2.5776682,1.5568303,9.492926
1609,1663243316984,-2.580061,1.5711871,9.500104
1610,1663243316984,-2.580061,1.5807585,9.512068
1611,1663243316989,-2.5585256,1.5879369,9.526425
1612,1663243316989,-2.5202405,1.5855441,9.557532
1613,1663243316994,-2.4987051,1.5951154,9.540782
1614,1663243316994,-2.4867408,1.5975082,9.492926
1615,1663243316999,-2.4675984,1.5927225,9.464211
1616,1663243316999,-2.4747767,1.5951154,9.433105
1617,1663243317003,-2.4652054,1.5999011,9.375677
1618,1663243317004,-2.4795625,1.640579,9.3613205
1619,1663243317008,-2.5034907,1.6573287,9.303893
1620,1663243317008,-2.501098,1.6597216,9.275179
1621,1663243317013,-2.5202405,1.6764714,9.241679
1622,1663243317014,-2.55374,1.6740786,9.229715
1623,1663243317018,-2.5633113,1.6501503,9.198608
1624,1663243317018,-2.5633113,1.6932211,9.145967
1625,1663243317023,-2.594418,1.6645073,9.129216
1626,1663243317023,-2.608775,1.6884354,9.153145
1627,1663243317028,-2.6063821,1.6645073,9.162716
1628,1663243317029,-2.6111677,1.6884354,9.186645
1629,1663243317032,-2.6111677,1.6621144,9.215358
1630,1663243317033,-2.592025,1.6621144,9.172287
1631,1663243317038,-2.5561328,1.6477575,9.22493
1632,1663243317039,-2.513062,1.6334006,9.253643
1633,1663243317043,-2.4819553,1.6238292,9.279964
1634,1663243317043,-2.4580271,1.5999011,9.315857
1635,1663243317048,-2.4484558,1.6310078,9.332606
1636,1663243317048,-2.4484558,1.6046867,9.356535
1637,1663243317053,-2.4652054,1.6046867,9.351749
1638,1663243317053,-2.4891338,1.6381862,9.37807
1639,1663243317058,-2.4963121,1.6262221,9.390035
1640,1663243317058,-2.541776,1.6118652,9.380463
1641,1663243317063,-2.5441687,1.6070795,9.430713
1642,1663243317063,-2.5896323,1.6166508,9.418748
1643,1663243317071,-2.6183462,1.5903298,9.437891
1644,1663243317071,-2.608775,1.5544374,9.445069
1645,1663243317072,-2.592025,1.5568303,9.457033
1646,1663243317072,-2.6255248,1.5424733,9.447462
1647,1663243317108,-2.608775,1.5448661,9.437891
1648,1663243317109,-2.6183462,1.57358,9.452248
1649,1663243317109,-2.6374888,1.5759728,9.442677
1650,1663243317109,-2.6303103,1.5927225,9.428319
1651,1663243317109,-2.632703,1.6357933,9.447462
1652,1663243317109,-2.6183462,1.6046867,9.449855
1653,1663243317109,-2.594418,1.6118652,9.423533
1654,1663243317109,-2.5776682,1.6262221,9.409177
1655,1663243317109,-2.5609183,1.6070795,9.430713
1656,1663243317109,-2.5489542,1.6166508,9.392427
1657,1663243317109,-2.5178475,1.6142579,9.418748
1658,1663243317109,-2.5226333,1.6046867,9.425926
1659,1663243317110,-2.4867408,1.6166508,9.437891
1660,1663243317110,-2.472384,1.6262221,9.437891
1661,1663243317112,-2.4364917,1.5999011,9.449855
1662,1663243317112,-2.4245276,1.5975082,9.480962
1663,1663243317117,-2.364707,1.5831513,9.490533
1664,1663243317117,-2.335993,1.5903298,9.5048895
1665,1663243317122,-2.3790638,1.57358,9.500104
1666,1663243317122,-2.3862424,1.5687944,9.500104
1667,1663243317126,-2.3670998,1.5711871,9.478569
1668,1663243317126,-2.3838496,1.547259,9.461819
1669,1663243317131,-2.4029922,1.5616158,9.39482
1670,1663243317131,-2.417349,1.5400804,9.406784
1671,1663243317136,-2.4388845,1.5448661,9.342177
1672,1663243317136,-2.4675984,1.5352948,9.323035
1673,1663243317141,-2.4939194,1.5305092,9.272786
1674,1663243317141,-2.501098,1.5233307,9.208179
1675,1663243317147,-2.5082762,1.5257236,9.179466
1676,1663243317147,-2.5274189,1.5209379,9.145967
1677,1663243317151,-2.5369902,1.5400804,9.117252
1678,1663243317151,-2.5345974,1.5568303,9.119645
1679,1663243317157,-2.5513473,1.559223,9.102896
1680,1663243317157,-2.565704,1.5544374,9.100503
1681,1663243317161,-2.55374,1.547259,9.119645
1682,1663243317161,-2.5441687,1.5831513,9.153145
1683,1663243317166,-2.5633113,1.5831513,9.232108
1684,1663243317166,-2.5441687,1.5879369,9.253643
1685,1663243317171,-2.5298119,1.5855441,9.311071
1686,1663243317171,-2.5034907,1.5831513,9.392427
1687,1663243317177,-2.4532413,1.5759728,9.478569
1688,1663243317177,-2.4221346,1.57358,9.550353
1689,1663243317182,-2.3958137,1.5975082,9.615258
1690,1663243317182,-2.3814569,1.6142579,9.703794
1691,1663243317187,-2.3718855,1.5975082,9.75165
1692,1663243317187,-2.3694925,1.6118652,9.782756
1693,1663243317192,-2.3575284,1.6238292,9.787542
1694,1663243317192,-2.3479571,1.6214365,9.754043
1695,1663243317197,-2.3264217,1.6310078,9.720543
1696,1663243317197,-2.3599212,1.6286149,9.648758
1697,1663243317202,-2.3694925,1.6286149,9.598509
1698,1663243317202,-2.376671,1.6357933,9.514461
1699,1663243317205,-2.405385,1.6238292,9.442677
1700,1663243317205,-2.393421,1.6357933,9.390035
1701,1663243317211,-2.431706,1.6310078,9.291928
1702,1663243317211,-2.4675984,1.6453646,9.222537
1703,1663243317217,-2.4556344,1.6669,9.126823
1704,1663243317217,-2.484348,1.6860427,9.059825
1705,1663243317220,-2.501098,1.7003996,8.985348
1706,1663243317220,-2.5178475,1.7075781,8.937491
1707,1663243317225,-2.4915266,1.6860427,8.911171
1708,1663243317225,-2.46042,1.6836498,8.856135
1709,1663243317230,-2.4388845,1.6764714,8.88485
1710,1663243317230,-2.405385,1.6597216,8.8681
1711,1663243317235,-2.3790638,1.6477575,8.899206
1712,1663243317235,-2.3431716,1.6286149,8.970991
1713,1663243317240,-2.3862424,1.6286149,9.026325
1714,1663243317240,-2.3790638,1.6070795,9.045467
1715,1663243317245,-2.4245276,1.6094723,9.095717
1716,1663243317245,-2.4819553,1.5807585,9.22493
1717,1663243317250,-2.5202405,1.5855441,9.342177
1718,1663243317250,-2.5872395,1.5879369,9.478569
1719,1663243317255,-2.6159534,1.5783657,9.593723
1720,1663243317255,-2.690131,1.559223,9.675079
1721,1663243317260,-2.742773,1.5544374,9.794721
1722,1663243317260,-2.8148568,1.5281163,9.868897
1723,1663243317265,-2.8555348,1.506581,9.911968
1724,1663243317265,-2.8746774,1.4919249,9.978968
1725,1663243317270,-2.8674989,1.477568,10.010075
1726,1663243317270,-2.8483562,1.4823537,10.019646
1727,1663243317275,-2.838785,1.4847465,9.995717
1728,1663243317275,-2.8172495,1.4799608,9.943075
1729,1663243317280,-2.771786,1.5017953,9.892826
1730,1663243317280,-2.7332017,1.4871392,9.888041
1731,1663243317284,-2.7068806,1.4847465,9.8473625
1732,1663243317284,-2.673381,1.4946169,9.8066845
1733,1663243317290,-2.6183462,1.4799608,9.842577
1734,1663243317290,-2.5968108,1.4799608,9.878469
1735,1663243317294,-2.55374,1.4727824,9.93829
1736,1663243317295,-2.5226333,1.451247,10.057931
1737,1663243317300,-2.4077778,1.4560326,10.175478
1738,1663243317300,-2.309672,1.5281163,10.31187
1739,1663243317304,-2.2498515,1.5975082,10.441082
1740,1663243317304,-2.2187448,1.6692929,10.512866
1741,1663243317309,-2.1825533,1.7602202,10.54158
1742,1663243317309,-2.0916262,1.7985053,10.591829
1743,1663243317314,-1.9145572,1.8248264,10.630115
1744,1663243317315,-1.794916,1.8583258,10.69502
1745,1663243317320,-1.660918,1.8535402,10.750054
1746,1663243317320,-1.5146568,1.8104694,10.8098755
1747,1663243317325,-1.430908,1.788934,10.814661
1748,1663243317325,-1.3782659,1.7697915,10.762019
1749,1663243317330,-1.3734802,1.7315062,10.673185
1750,1663243317330,-1.3710874,1.6908283,10.534402
1751,1663243317335,-1.4117653,1.6597216,10.417153
1752,1663243317335,-1.4620147,1.5975082,10.283155
1753,1663243317340,-1.524228,1.559223,10.15155
1754,1663243317340,-1.6513467,1.4847465,10.024431
1755,1663243317344,-1.7398812,1.4344971,9.873684
1756,1663243317344,-1.8403797,1.3435699,9.713365
1757,1663243317350,-1.8547367,1.180858,9.535996
1758,1663243317350,-1.8116659,1.0229317,9.339785
1759,1663243317354,-1.7446668,0.8599206,9.071789
1760,1663243317354,-1.7231314,0.7259226,8.786744
1761,1663243317359,-1.715953,0.5919245,8.458927
1762,1663243317359,-1.6441683,0.6589235,8.133204
1763,1663243317364,-1.8810577,0.7402795,7.8433733
1764,1663243317364,-2.1418753,0.91495556,7.637591
1765,1663243317369,-2.2857437,1.0085747,7.3456664
1766,1663243317370,-2.4149563,1.1114662,7.094121
1767,1663243317374,-2.6350958,1.2550355,7.003194
1768,1663243317374,-2.9009984,1.3603196,6.9649086
1769,1663243317379,-3.135495,1.4608182,6.988837
1770,1663243317379,-3.2479577,1.4392828,7.05105
1771,1663243317384,-3.3005998,1.3100704,7.043872
1772,1663243317384,-3.418147,1.3268201,7.275975
1773,1663243317389,-3.5449667,1.3316058,7.563413
1774,1663243317389,-3.6000016,1.314856,7.812267
1775,1663243317394,-3.6000016,1.262214,8.169097
1776,1663243317394,-3.4899318,1.1377872,8.568997
1777,1663243317399,-3.3583267,1.0468599,9.026325
1778,1663243317399,-3.202494,0.93679005,9.459426
1779,1663243317404,-2.9823544,0.75702924,9.8066845
1780,1663243317404,-2.8172495,0.6684948,10.141979
1781,1663243317409,-2.7236304,0.6445666,10.517652
1782,1663243317409,-2.6805596,0.70678,10.888839
1783,1663243317414,-2.580061,0.72352976,11.209476
1784,1663243317414,-2.431706,0.68045896,11.559128
1785,1663243317418,-2.3312075,0.6948159,11.956635
1786,1663243317418,-2.7044878,1.166501,12.296416
1787,1663243317423,-3.3822548,1.6692929,12.457035
1788,1663243317423,-3.3918262,1.5759728,12.863814
1789,1663243317428,-3.1378877,1.4464613,13.199109
1790,1663243317428,-2.908177,1.2765709,13.364214
1791,1663243317433,-2.8052855,1.1066805,13.349856
1792,1663243317434,-2.673381,0.90538424,13.400105
1793,1663243317439,-2.539383,0.68045896,13.462319
1794,1663243317439,-2.3479571,0.44835514,13.493426
1795,1663243317443,-2.1801605,0.232702,13.462319
1796,1663243317444,-2.012663,0.036490545,13.407285
1797,1663243317448,-1.8810577,-0.08075777,13.309178
1798,1663243317448,-1.7470596,-0.200698,13.235002
1799,1663243317454,-1.6585252,-0.24855445,13.1129675
1800,1663243317454,-1.6247265,-0.24616162,13.029219
1801,1663243317458,-1.6151553,-0.21744776,12.967005
1802,1663243317458,-1.5816557,-0.20787647,12.882957
1803,1663243317463,-1.564906,-0.18604197,12.765709
1804,1663243317463,-1.5601203,-0.10707881,12.68196
1805,1663243317467,-1.5601203,0.012562319,12.497713
1806,1663243317468,-1.538585,0.055633128,12.310774
1807,1663243317473,-1.4883357,0.13220344,12.152847
1808,1663243317473,-1.4380864,0.2015953,11.949457
1809,1663243317478,-1.3782659,0.2542374,11.767303
1810,1663243317478,-1.3184453,0.32123643,11.573485
1811,1663243317483,-1.2705889,0.41006997,11.468201
1812,1663243317483,-1.2299109,0.4435695,11.346167
1813,1663243317488,-1.1700903,0.5201398,11.190334
1814,1663243317488,-1.1413764,0.5632106,10.941481
1815,1663243317493,-1.1102697,0.60388863,10.702198
1816,1663243317493,-1.0863415,0.6302097,10.457831
1817,1663243317498,-1.0911272,0.6230312,10.1802635
1818,1663243317498,-1.1509477,0.6302097,9.931111
1819,1663243317502,-1.1916257,0.58953166,9.6942215
1820,1663243317502,-1.2562319,0.5608178,9.480962
1821,1663243317508,-1.3519448,0.5560322,9.346964
1822,1663243317508,-1.4261223,0.5344968,9.279964
1823,1663243317513,-1.4859428,0.53210396,9.268001
1824,1663243317513,-1.5816557,0.5297111,9.28475
1825,1663243317518,-1.6704893,0.558425,9.303893
1826,1663243317518,-1.7662022,0.54646087,9.337392
1827,1663243317522,-1.8188443,0.56560344,9.464211
1828,1663243317523,-1.957628,0.5560322,9.610473
1829,1663243317529,-2.2067807,0.4004987,9.82822
1830,1663243317529,-2.2259233,0.45074797,9.837791
1831,1663243317533,-2.1370897,0.51535416,9.842577
1832,1663243317533,-2.1131616,0.5201398,10.002896
1833,1663243317535,-2.038984,0.5201398,10.237692
1834,1663243317541,-2.0748763,0.45792642,10.429117
1835,1663243317541,-2.0485554,0.46749774,10.44826
1836,1663243317544,-1.9743778,0.4004987,10.493724
1837,1663243317544,-1.701596,0.5249255,10.496117
1838,1663243317550,-1.524228,0.5057829,10.625329
1839,1663243317550,-1.416551,0.46031925,10.884053
1840,1663243317554,-1.1557333,0.42921257,11.032408
1841,1663243317554,-0.901795,0.28295127,11.175978
1842,1663243317560,-0.6266204,0.15134603,11.2501545
1843,1663243317560,-0.293719,-0.04007978,11.389237
1844,1663243317564,-0.04007978,-0.22701904,11.544771
1845,1663243317564,0.17557336,-0.39451665,11.764911
1846,1663243317571,0.42921257,-0.53330034,11.994921
1847,1663243317571,0.6086743,-0.69122666,12.207882
1848,1663243318090,-3.3846476,4.9803615,2.3252254
1849,1663243318090,-3.5090744,5.0066824,2.344368
1850,1663243318090,-3.5712879,4.968397,2.2845473
1851,1663243318090,-3.6478581,5.001897,2.2124636
1852,1663243318090,-3.6813576,4.9755754,1.9995024
1853,1663243318090,-3.6646078,4.930112,1.829612
1854,1663243318098,-3.6789649,4.8822556,1.6689938
1855,1663243318098,-3.772285,4.903791,1.5637096
1856,1663243318098,-3.9400816,4.944469,1.4608182
1857,1663243318098,-4.119543,5.0186462,1.4919249
1858,1663243318103,-4.3755755,5.0736814,1.5972091
1859,1663243318103,-4.66062,5.1143594,1.7315062
1860,1663243318108,-4.8975096,5.1646085,1.7096717
1861,1663243318108,-5.1203413,5.126323,1.7267207
1862,1663243318114,-5.326124,5.1071806,1.829612
1863,1663243318114,-5.5008,5.119145,1.8870398
1864,1663243318118,-5.7020965,5.1119666,1.9420747
1865,1663243318118,-5.8911295,5.109574,1.951646
1866,1663243318123,-6.0753765,5.0976095,1.992324
1867,1663243318123,-6.2407804,5.104788,1.9875383
1868,1663243318127,-6.369993,5.090431,2.0258234
1869,1663243318127,-6.489634,5.061717,2.0210378
1870,1663243318134,-6.6092753,5.0712886,2.1167507
1871,1663243318134,-6.7818575,5.1215377,2.2483559
1872,1663243318139,-6.908677,5.198108,2.3994029
1873,1663243318140,-7.0953174,5.2603216,2.5381866
1874,1663243318143,-7.198209,5.3201423,2.6865416
1875,1663243318143,-7.2559357,5.382355,2.899802
1876,1663243318149,-7.287042,5.413462,3.074478
1877,1663243318149,-7.246364,5.406284,3.184548
1878,1663243318153,-7.246364,5.391927,3.3185458
1879,1663243318153,-7.195816,5.3703914,3.3281171
1880,1663243318158,-7.11446,5.334499,3.4073794
1881,1663243318158,-7.0953174,5.291428,3.4743786
1882,1663243318163,-7.023533,5.2675,3.5533416
1883,1663243318163,-7.0043902,5.238786,3.7136607
1884,1663243318167,-6.9972115,5.224429,3.8907297
1885,1663243318168,-6.9445696,5.1813583,4.034598
1886,1663243318174,-6.9206414,5.1119666,4.1374893
1887,1663243318174,-6.8967133,5.0234323,4.2858443
1888,1663243318177,-6.9158554,4.9588256,4.436592
1889,1663243318177,-6.9206414,4.858028,4.5876393
1890,1663243318183,-6.934998,4.747958,4.5852466
1891,1663243318183,-6.8871417,4.642674,4.5373898
1892,1663243318187,-6.9182487,4.5134616,4.4054856
1893,1663243318187,-6.923034,4.3986063,4.295416
1894,1663243318192,-6.999604,4.3316073,4.3528433
1895,1663243318192,-7.126424,4.3316073,4.3576293
1896,1663243318197,-7.2245297,4.322036,4.3408794
1897,1663243318197,-7.3372917,4.3651066,4.4605207
1898,1663243318202,-7.449754,4.3722854,4.5035915
1899,1663243318202,-7.54786,4.391428,4.5206404
1900,1663243318207,-7.708179,4.4081774,4.7048874
1901,1663243318207,-7.832905,4.374678,4.848457
1902,1663243318212,-7.899904,4.374678,4.9992046
1903,1663243318212,-8.014759,4.302893,5.2435718
1904,1663243318217,-8.09133,4.240381,5.4182477
1905,1663243318217,-8.182257,4.1590247,5.5689955
1906,1663243318222,-8.280363,4.1757746,5.7750773
1907,1663243318222,-8.349754,4.1781673,5.892326
1908,1663243318227,-8.481659,4.21406,6.0693946
1909,1663243318227,-8.594122,4.281059,6.2108703
1910,1663243318233,-8.673085,4.3651066,6.32094
1911,1663243318233,-8.7113695,4.4775696,6.4381886
1912,1663243318237,-8.775976,4.5613184,6.483652
1913,1663243318237,-8.850154,4.657031,6.6774707
1914,1663243318242,-8.936594,4.755137,6.8763742
1915,1663243318243,-8.922237,4.807779,7.010372
1916,1663243318246,-8.919545,4.8918266,7.1156564
1917,1663243318247,-8.934201,4.9253263,7.2448688
1918,1663243318252,-8.94138,4.9660044,7.3624163
1919,1663243318252,-8.929416,4.9995036,7.6136627
1920,1663243318256,-8.907581,5.0593243,7.826624
1921,1663243318257,-8.953344,5.135895,8.047063
1922,1663243318262,-8.99163,5.2292147,8.147561
1923,1663243318262,-9.082557,5.3105707,8.236095
1924,1663243318267,-9.142377,5.4233327,8.2456665
1925,1663243318267,-9.240483,5.5046883,8.255239
1926,1663243318272,-9.324232,5.5669017,8.274381
1927,1663243318273,-9.410374,5.619544,8.260024
1928,1663243318276,-9.492028,5.6410794,8.221739
1929,1663243318276,-9.5303135,5.6171513,8.195417
1930,1663243318284,-9.515957,5.5597234,8.116454
1931,1663243318284,-9.422338,5.4352965,8.013563
1932,1663243318285,-9.2691965,5.3512487,7.9034934
1933,1663243318285,-9.11127,5.28425,7.778767
1934,1663243318291,-8.955737,5.2483573,7.6806617
1935,1663243318291,-8.773583,5.2435718,7.553842
1936,1663243318296,-8.6395855,5.2675,7.4653077
1937,1663243318296,-8.479266,5.3273206,7.4030943
1938,1663243318301,-8.359326,5.391927,7.340881
1939,1663243318302,-8.258827,5.471189,7.2879395
1940,1663243318306,-8.153543,5.5405807,7.242476
1941,1663243318306,-8.086544,5.621937,7.175477
1942,1663243318310,-8.019546,5.6961145,7.1635127
1943,1663243318310,-7.928618,5.7320065,7.0654073
1944,1663243318317,-7.873583,5.736792,6.9649086
1945,1663243318317,-7.8017983,5.741578,6.8763742
1946,1663243318320,-7.791928,5.7391853,6.8428745
1947,1663243318322,-7.7345,5.7343993,6.7998037
1948,1663243318325,-7.693822,5.712864,6.7782683
1949,1663243318325,-7.6340017,5.6554365,6.7181487
1950,1663243318331,-7.5717883,5.636294,6.672685
1951,1663243318331,-7.4736824,5.595616,6.6009
1952,1663243318335,-7.36122,5.5453663,6.5626154
1953,1663243318335,-7.25115,5.4927244,6.459724
1954,1663243318341,-7.112067,5.4110694,6.3831534
1955,1663243318341,-6.999604,5.3679986,6.33769
1956,1663243318346,-6.8967133,5.308178,6.3329043
1957,1663243318346,-6.8057857,5.291428,6.311369
1958,1663243318350,-6.693323,5.2627144,6.3568325
1959,1663243318350,-6.5949183,5.2316074,6.3568325
1960,1663243318355,-6.492027,5.253143,6.361618
1961,1663243318355,-6.4274206,5.238786,6.3544397
1962,1663243318360,-6.369993,5.2627144,6.378368
1963,1663243318361,-6.30778,5.2555356,6.4501524
1964,1663243318365,-6.288637,5.2890353,6.6224356
1965,1663243318365,-6.247959,5.3273206,6.7301126
1966,1663243318370,-6.183353,5.3105707,6.8404818
1967,1663243318370,-6.154639,5.324928,6.919445
1968,1663243318374,-6.108876,5.3273206,6.9768724
1969,1663243318376,-6.06102,5.317749,7.108478
1970,1663243318380,-6.0323057,5.3009996,7.2233334
1971,1663243318380,-5.977271,5.2698927,7.3166533
1972,1663243318385,-5.9557357,5.274678,7.446165
1973,1663243318385,-5.9342003,5.226822,7.522735
1974,1663243318390,-5.9318075,5.217251,7.570592
1975,1663243318390,-5.9318075,5.2052865,7.635198
1976,1663243318395,-5.9700923,5.217251,7.685447
1977,1663243318395,-6.0514483,5.241179,7.7380896
1978,1663243318400,-6.1235323,5.308178,7.7763743
1979,1663243318400,-6.168996,5.375177,7.7979097
1980,1663243318405,-6.2048883,5.4038906,7.8146596
1981,1663243318406,-6.250352,5.4233327,7.8146596
1982,1663243318410,-6.25753,5.4233327,7.754839
1983,1663243318410,-6.207281,5.432904,7.6902328
1984,1663243318415,-6.1378894,5.406284,7.6591263
1985,1663243318415,-6.0346985,5.365606,7.6567335
1986,1663243318420,-5.898308,5.293821,7.6663046
1987,1663243318420,-5.7379885,5.200501,7.678269
1988,1663243318425,-5.551049,5.15743,7.6806617
1989,1663243318425,-5.4003015,5.0808597,7.6543407
1990,1663243318430,-5.247161,5.001897,7.6160555
1991,1663243318430,-5.0629134,4.93729,7.5873413
1992,1663243318434,-4.9310093,4.855635,7.5466633
1993,1663243318435,-4.8041897,4.764708,7.5035925
1994,1663243318440,-4.6821556,4.7024946,7.4437723
1995,1663243318440,-4.5338006,4.640281,7.4389863
1996,1663243318444,-4.450052,4.575675,7.429415
1997,1663243318445,-4.3372903,4.5038905,7.474879
1998,1663243318449,-4.2248273,4.415356,7.5921273
1999,1663243318449,-4.124329,4.377071,7.623234
2000,1663243318454,-4.0310087,4.2858443,7.68784
2001,1663243318454,-3.9400816,4.2188454,7.754839
2002,1663243318459,-3.8344984,4.182953,7.8146596
2003,1663243318459,-3.7387853,4.139882,7.879266
2004,1663243318464,-3.6861434,4.1231327,7.920243
2005,1663243318465,-3.6406796,4.1015973,7.982456
2006,1663243318469,-3.5760734,4.1087756,8.099705
2007,1663243318469,-3.5234313,4.0968113,8.219346
2008,1663243318474,-3.4707892,4.0776687,8.322237
2009,1663243318474,-3.3726835,4.0417767,8.429914
2010,1663243318478,-3.2886357,3.9795632,8.485249
2011,1663243318478,-3.2144582,3.8934216,8.533105
2012,1663243318484,-3.1115668,3.7833517,8.518747
2013,1663243318484,-3.0086753,3.6753755,8.482856
2014,1663243318488,-2.9129624,3.5270207,8.439486
2015,1663243318489,-2.8411777,3.4169507,8.420342
2016,1663243318493,-2.7526433,3.2829528,8.41795
2017,1663243318493,-2.661417,3.1462626,8.403593
2018,1663243318498,-2.5561328,3.0385857,8.398808
2019,1663243318499,-2.46042,2.966801,8.3581295
2020,1663243318504,-2.3958137,2.871088,8.32463
2021,1663243318504,-2.324029,2.7873392,8.271988
2022,1663243318509,-2.2378874,2.6748767,8.226524
2023,1663243318509,-2.204388,2.5908287,8.188239
2024,1663243318513,-2.1658037,2.5070798,8.154739
2025,1663243318513,-2.1442683,2.4185455,8.094919
2026,1663243318521,-2.1155543,2.3802602,8.130812
2027,1663243318521,-2.0916262,2.3491535,8.109276
2028,1663243318525,-2.0509481,2.3252254,8.111669
2029,1663243318525,-1.9935204,2.2438695,8.068598
2030,1663243318532,-2.0006988,2.2271197,8.063812
2031,1663243318532,-1.9695921,2.1649063,7.999206
2032,1663243318532,-1.9408783,2.1122642,7.9704924
2033,1663243318535,-1.91695,2.0548365,7.941778
2034,1663243318537,-1.8858434,1.9707886,7.9106717
2035,1663243318540,-1.8619151,1.8942182,7.8840513
2036,1663243318540,-1.835594,1.8224336,7.812267
2037,1663243318545,-1.8068802,1.7410775,7.752446
2038,1663243318545,-1.7518452,1.6357933,7.6998043
2039,1663243318550,-1.7446668,1.5281163,7.661519
2040,1663243318550,-1.6657037,1.4129617,7.5897346
2041,1663243318555,-1.5816557,1.2454642,7.539485
2042,1663243318555,-1.4979069,1.0851451,7.529914
2043,1663243318560,-1.3806586,0.92213404,7.5203424
2044,1663243318560,-1.2562319,0.75224364,7.5514493
2045,1663243318565,-1.1318051,0.6158527,7.563413
2046,1663243318565,-1.023829,0.48903313,7.5921273
2047,1663243318571,-0.91854477,0.36909288,7.6160555
2048,1663243318571,-0.82043904,0.25184458,7.620841
2049,1663243318592,-0.7007979,0.11784652,7.6423764
2050,1663243318592,-0.6409774,-0.016151553,7.6686974
2051,1663243318592,-0.5596214,-0.15014961,7.7237325
2052,1663243318592,-0.45403808,-0.27726832,7.730911
2053,1663243318592,-0.4229314,-0.39690945,7.785946
2054,1663243318592,-0.38464624,-0.5691927,7.8577304
2055,1663243318592,-0.32243285,-0.7223333,7.9800634
2056,1663243318592,-0.25543383,-0.8997013,8.090134
2057,1663243318595,-0.19561325,-1.0576276,8.166703
2058,1663243318595,-0.08554341,-1.2251252,8.216953
2059,1663243318600,0.010169496,-1.3689936,8.252846
2060,1663243318600,0.08225328,-1.5077773,8.262417
2061,1663243318604,0.18993029,-1.6250256,8.286345
2062,1663243318604,0.27846473,-1.7255242,8.255239
2063,1663243318609,0.34785658,-1.8188443,8.188239
2064,1663243318609,0.4531408,-1.8933209,8.099705
2065,1663243318614,0.5799604,-2.0057836,7.984849
2066,1663243318615,0.6999006,-2.14696,7.8553376
2067,1663243318619,0.83389866,-2.2546372,7.7644105
2068,1663243318619,1.0109676,-2.4029922,7.623234
2069,1663243318625,1.2170494,-2.5516462,7.5011997
2070,1663243318625,1.4276178,-2.6928227,7.379166
2071,1663243318629,1.6381862,-2.8292136,7.228119
2072,1663243318629,1.8801605,-3.001796,7.120442
2073,1663243318634,2.1314068,-3.1334012,6.972087
2074,1663243318634,2.373381,-3.2937205,6.8428745
2075,1663243318639,2.6270201,-3.4277184,6.732506
2076,1663243318639,2.8280172,-3.5787654,6.6391854
2077,1663243318644,3.050849,-3.7247276,6.560222
2078,1663243318644,3.2207394,-3.8635113,6.4884377
2079,1663243318649,3.4268212,-3.9975092,6.4214387
2080,1663243318649,3.6541393,-4.1051865,6.3735824
2081,1663243318654,3.8886359,-4.2011986,6.3305116
2082,1663243318654,4.1641097,-4.282554,6.285048
2083,1663243318658,4.451248,-4.3184466,6.280262
2084,1663243318658,4.7769713,-4.325625,6.2587266
2085,1663243318664,5.1290154,-4.3471603,6.237191
2086,1663243318665,5.51426,-4.3591247,6.189036
2087,1663243318670,5.9093747,-4.3782673,6.1507506
2088,1663243318670,6.3044896,-4.383053,6.050252
2089,1663243318674,6.742376,-4.4117665,5.9641104
2090,1663243318674,7.1398835,-4.4285164,5.877969
2091,1663243318680,7.556534,-4.462016,5.820541
2092,1663243318680,7.9420776,-4.4955153,5.77747
2093,1663243318684,8.279466,-4.5338006,5.8420763
2094,1663243318684,8.56451,-4.557729,5.9545393
2095,1663243318688,8.8492565,-4.596014,6.1028943
2096,1663243318688,9.09123,-4.6725845,6.253941
2097,1663243318694,9.287442,-4.7279186,6.3903317
2098,1663243318694,9.486046,-4.7374897,6.5027947
2099,1663243318698,9.6993065,-4.8212385,6.6391854
2100,1663243318698,9.857233,-4.8643093,6.8165536
2101,1663243318703,9.974482,-4.9265227,7.036693
2102,1663243318704,10.113265,-4.9959145,7.2975106
2103,1663243318708,10.228419,-5.072485,7.5346994
2104,1663243318708,10.33849,-5.115556,7.783553
2105,1663243318714,10.472487,-5.1729836,8.049456
2106,1663243318714,10.527522,-5.20409,8.252846
2107,1663243318718,10.515558,-5.180162,8.449356
2108,1663243318718,10.405488,-5.1681976,8.643174
2109,1663243318724,10.281061,-5.098806,8.762815
2110,1663243318724,10.180563,-5.041378,8.798708
2111,1663243318729,10.101301,-4.9289155,8.801101
2112,1663243318729,10.170992,-4.842774,8.750852
2113,1663243318733,10.226027,-4.742275,8.722137
2114,1663243318733,10.362417,-4.6462636,8.66471
2115,1663243318738,10.525129,-4.545765,8.635996
2116,1663243318738,10.668699,-4.471587,8.597711
2117,1663243318743,10.802996,-4.4189453,8.540283
2118,1663243318743,10.951351,-4.3615174,8.446963
2119,1663243318748,11.032707,-4.313661,8.379665
2120,1663243318748,11.118849,-4.2681975,8.269595
2121,1663243318753,11.135598,-4.2514477,8.147561
2122,1663243318753,11.130813,-4.2370906,8.02792
2123,1663243318758,11.123634,-4.256233,7.893922
2124,1663243318758,11.0686,-4.246662,7.7380896
2125,1663243318763,10.982458,-4.246662,7.596913
2126,1663243318763,10.881959,-4.265805,7.5059857
2127,1663243318768,10.76471,-4.2011986,7.4126654
2128,1663243318768,10.606485,-4.1605206,7.3695946
2129,1663243318773,10.525129,-4.150949,7.3166533
2130,1663243318773,10.4413805,-4.1437707,7.256833
2131,1663243318778,10.328918,-4.138985,7.218548
2132,1663243318779,10.187741,-4.112365,7.1539416
2133,1663243318783,9.976874,-4.0645084,7.1012993
2134,1663243318783,9.735199,-4.0405803,7.1228347
2135,1663243318788,9.495618,-4.004688,7.1730843
2136,1663243318788,9.313763,-4.0070806,7.199405
2137,1663243318793,9.177372,-3.9975092,7.201798
2138,1663243318793,9.036196,-4.004688,7.2711897
2139,1663243318798,8.937791,-4.054937,7.307082
2140,1663243318798,8.803793,-4.0501513,7.3624163
2141,1663243318803,8.686544,-4.0740795,7.419844
2142,1663243318803,8.554939,-4.069294,7.4413795
2143,1663243318807,8.384749,-4.028616,7.4413795
2144,1663243318807,8.190931,-3.9711883,7.4700933
2145,1663243318813,8.080861,-3.935296,7.415058
2146,1663243318813,8.006683,-3.865904,7.422237
2147,1663243318817,7.908279,-3.7749767,7.4030943
2148,1663243318818,7.7886376,-3.6672997,7.39113
2149,1663243318823,7.7120676,-3.5787654,7.4030943
2150,1663243318823,7.645068,-3.4540396,7.4653077
2151,1663243318827,7.537391,-3.3415768,7.4389863
2152,1663243318828,7.496713,-3.2410784,7.419844
2153,1663243318832,7.4440713,-3.1405797,7.4030943
2154,1663243318832,7.379465,-3.042474,7.3719873
2155,1663243318838,7.3313093,-2.958426,7.348059
2156,1663243318838,7.242775,-2.8770702,7.338488
2157,1663243318842,7.149455,-2.8028927,7.299904
2158,1663243318842,7.044171,-2.7622147,7.259226
2159,1663243318847,6.9388866,-2.7239294,7.2711897
2160,1663243318847,6.864709,-2.676073,7.2903323
2161,1663243318852,6.7758756,-2.661716,7.3576307
2162,1663243318852,6.716055,-2.6330023,7.350452
2163,1663243318857,6.6394844,-2.6042883,7.381559
2164,1663243318857,6.632306,-2.6090739,7.3983083
2165,1663243318862,6.6514487,-2.6401806,7.4413795
2166,1663243318863,6.672984,-2.6976085,7.489236
2167,1663243318867,6.747162,-2.731108,7.4916286
2168,1663243318867,6.780661,-2.7741787,7.4677005
2169,1663243318871,6.7782683,-2.8196423,7.4533434
2170,1663243318871,6.812067,-2.8818557,7.4413795
2171,1663243318877,6.838388,-2.9105697,7.4389863
2172,1663243318878,6.9963145,-2.9994032,7.4700933
2173,1663243318881,7.09442,-3.0664022,7.434201
2174,1663243318881,7.149455,-3.1046875,7.39113
2175,1663243318886,7.326524,-3.1956146,7.379166
2176,1663243318886,7.496713,-3.2889347,7.3432736
2177,1663243318891,7.6163545,-3.32722,7.2903323
2178,1663243318891,7.719246,-3.379862,7.292725
2179,1663243318896,7.84128,-3.4085758,7.2975106
2180,1663243318896,7.9612203,-3.4923246,7.3166533
2181,1663243318901,8.064112,-3.55723,7.2879395
2182,1663243318901,8.100004,-3.6194434,7.3360953
2183,1663243318905,8.109575,-3.6457644,7.3719873
2184,1663243318905,8.1382885,-3.6840496,7.4413795
2185,1663243318910,8.181359,-3.7366917,7.4940214
2186,1663243318910,8.236395,-3.7701912,7.537092
2187,1663243318916,8.255537,-3.7965121,7.525128
2188,1663243318916,8.1789665,-3.7486558,7.565806
2189,1663243318920,8.073683,-3.693621,7.6495547
2190,1663243318920,8.023434,-3.6409788,7.759625
2191,1663243318925,7.9683986,-3.55723,7.852945
2192,1663243318925,7.9011,-3.5090744,7.9034934
2193,1663243318930,7.8149586,-3.4516466,7.946564
2194,1663243318930,7.7216387,-3.379862,8.020741
2195,1663243318935,7.63789,-3.3152559,8.070991
2196,1663243318935,7.54457,-3.2219357,8.157132
2197,1663243318940,7.4823565,-3.1716864,8.248059
2198,1663243318940,7.4273214,-3.0999017,8.372486
2199,1663243318945,7.4177504,-3.071188,8.451749
2200,1663243318945,7.3698936,-3.042474,8.525927
2201,1663243318950,7.3770723,-3.0592237,8.628818
2202,1663243318950,7.4033933,-3.1142588,8.700603
2203,1663243318955,7.4344997,-3.1453655,8.760423
2204,1663243318955,7.4775705,-3.150151,8.736495
2205,1663243318960,7.537391,-3.1357942,8.769994
2206,1663243318960,7.5517483,-3.12383,8.774779
2207,1663243318965,7.60439,-3.0855448,8.765208
2208,1663243318965,7.6594253,-3.0592237,8.695817
2209,1663243318970,7.6953177,-3.0209386,8.638389
2210,1663243318970,7.7216387,-2.9970105,8.595318
2211,1663243318975,7.7886376,-3.01376,8.516355
2212,1663243318975,7.836494,-3.0400813,8.437093
2213,1663243318980,7.891529,-3.0903304,8.300702
2214,1663243318980,7.963613,-3.1549366,8.2049885
2215,1663243318984,8.059326,-3.21715,8.140383
2216,1663243318984,8.176574,-3.2889347,8.080562
2217,1663243318989,8.265108,-3.3415768,8.04467
2218,1663243318989,8.4038925,-3.394219,8.008778
2219,1663243318995,8.542975,-3.4612179,7.9944205
2220,1663243318995,8.607581,-3.5377884,7.941778
2221,1663243319000,8.626724,-3.5668013,7.8649087
2222,1663243319000,8.6961155,-3.595515,7.8050885
2223,1663243319005,8.708079,-3.585944,7.7404823
2224,1663243319005,8.722437,-3.5715868,7.745268
2225,1663243319009,8.746365,-3.5377884,7.7811604
2226,1663243319009,8.787043,-3.51386,7.8649087
2227,1663243319014,8.803793,-3.4564323,7.9537425
2228,1663243319014,8.763115,-3.4085758,8.097312
2229,1663243319019,8.748757,-3.3032916,8.224132
2230,1663243319019,8.727222,-3.2075787,8.34138
2231,1663243319024,8.729615,-3.0496526,8.439486
2232,1663243319024,8.710473,-2.8986056,8.478069
2233,1663243319029,8.662616,-2.7071798,8.535498
2234,1663243319029,8.65783,-2.5492535,8.478069
2235,1663243319035,8.600403,-2.3790638,8.432307
2236,1663243319035,8.583653,-2.245066,8.386844
2237,1663243319582,10.970493,4.805386,1.8678972
2238,1663243319582,10.759925,4.752744,1.951646
2239,1663243319582,10.539487,4.7096734,2.0306091
2240,1663243319583,10.252348,4.683352,2.0952153
2241,1663243319583,9.96491,4.680959,2.1574287
2242,1663243319588,9.708878,4.6689954,2.2244277
2243,1663243319588,9.464511,4.671388,2.3132613
2244,1663243319593,9.232407,4.6618166,2.3946173
2245,1663243319593,9.004789,4.666602,2.5094728
2246,1663243319598,8.81815,4.6522455,2.5286152
2247,1663243319598,8.643474,4.6689954,2.5836504
2248,1663243319603,8.48794,4.6498528,2.614757
2249,1663243319603,8.490333,4.4871407,2.5669005
2250,1663243319608,8.437391,4.4225345,2.5645077
2251,1663243319608,8.222037,4.5373898,2.6195426
2252,1663243319613,8.013863,4.673781,2.6171498
2253,1663243319613,7.8460655,4.8532424,2.5836504
2254,1663243319618,7.7072816,5.0330033,2.574079
2255,1663243319618,7.628319,5.212465,2.5477579
2256,1663243319623,7.5924263,5.3847485,2.5094728
2257,1663243319623,7.568498,5.5597234,2.4903302
2258,1663243319628,7.6067834,5.6745787,2.480759
2259,1663243319628,7.668997,5.767899,2.452045
2260,1663243319634,7.733603,5.832505,2.3994029
2261,1663243319634,7.8580294,5.885147,2.3515465
2262,1663243319638,7.939685,5.8827543,2.3300111
2263,1663243319638,8.03779,5.858826,2.2917259
2264,1663243319642,8.183753,5.7990055,2.2387848
2265,1663243319642,8.284251,5.71765,2.140679
2266,1663243319648,8.415856,5.621937,2.0808585
2267,1663243319648,8.495118,5.5022955,2.0282164
2268,1663243319653,8.583653,5.3560343,1.9875383
2269,1663243319653,8.703294,5.176573,1.9468603
2270,1663243319657,8.806186,4.9803615,1.9085752
2271,1663243319657,8.904291,4.791029,1.9013968
2272,1663243319662,8.980862,4.6115675,1.8942182
2273,1663243319662,9.023932,4.4321055,1.8631115
2274,1663243319668,9.050552,4.254738,1.8535402
2275,1663243319668,9.052945,4.0968113,1.8511474
2276,1663243319673,8.997611,3.9723847,1.8391833
2277,1663243319673,8.918648,3.8647077,1.843969
2278,1663243319677,8.78465,3.735196,1.8583258
2279,1663243319677,8.633903,3.6394832,1.9157536
2280,1663243319682,8.451749,3.5413775,2.004288
2281,1663243319682,8.248359,3.3954153,2.1287148
2282,1663243319687,8.05454,3.2542388,2.2917259
2283,1663243319687,7.8604226,3.1079776,2.5118656
2284,1663243319692,7.635497,2.9428728,2.8325038
2285,1663243319692,7.4416785,2.7873392,3.1797621
2286,1663243319697,7.2547393,2.5908287,3.5940197
2287,1663243319697,7.082456,2.4017956,4.048955
2288,1663243319702,6.931708,2.2271197,4.491627
2289,1663243319702,6.7519474,2.0620148,4.9417768
2290,1663243319707,6.58445,1.9133608,5.4182477
2291,1663243319707,6.404988,1.7315062,5.834898
2292,1663243319712,6.27099,1.5711871,6.280262
2293,1663243319712,6.172585,1.410569,6.691828
2294,1663243319717,6.091229,1.2574283,7.0845494
2295,1663243319717,6.052944,1.1234303,7.4270225
2296,1663243319722,6.0936217,1.018146,7.795517
2297,1663243319722,6.2350974,0.9607183,8.10449
2298,1663243319726,6.369096,0.9607183,8.346166
2299,1663243319727,6.558129,1.0133604,8.497212
2300,1663243319732,6.6849484,1.1186446,8.549854
2301,1663243319732,6.7208405,1.2646067,8.557033
2302,1663243319736,6.7088766,1.4416757,8.492427
2303,1663243319736,6.5964136,1.6094723,8.377272
2304,1663243319742,6.450452,1.7841483,8.255239
2305,1663243319742,6.335596,1.9253249,8.059027
2306,1663243319746,6.2733827,2.059622,7.795517
2307,1663243319746,6.242276,2.1242282,7.5418777
2308,1663243319751,6.244669,2.1768703,7.2783685
2309,1663243319751,6.3044896,2.1936202,6.9098735
2310,1663243319756,6.349953,2.2103698,6.54108
2311,1663243319756,6.3834524,2.1984057,6.1603217
2312,1663243319764,6.3714886,2.1864417,5.8277197
2313,1663243319764,6.3068824,2.1505494,5.5666027
2314,1663243319766,6.2228346,2.1026928,5.4038906
2315,1663243319766,6.105586,2.059622,5.375177
2316,1663243319771,5.9620166,2.0425732,5.4349976
2317,1663243319771,5.823233,2.006681,5.56421
2318,1663243319776,5.7370915,1.937289,5.743971
2319,1663243319776,5.645865,1.8607187,6.0287166
2320,1663243319781,5.5310097,1.7554345,6.2467628
2321,1663243319781,5.454439,1.6190436,6.445367
2322,1663243319786,5.339584,1.5376877,6.6678996
2323,1663243319786,5.1960144,1.43689,6.8668027
2324,1663243319791,5.0449677,1.3387842,7.1419773
2325,1663243319791,4.8750772,1.2574283,7.348059
2326,1663243319796,4.724329,1.2263216,7.527521
2327,1663243319796,4.578367,1.2263216,7.6591263
2328,1663243319802,4.4057846,1.2430713,7.728518
2329,1663243319802,4.302893,1.2598212,7.785946
2330,1663243319806,4.214359,1.2981063,7.8553376
2331,1663243319806,4.1330028,1.2981063,7.941778
2332,1663243319810,4.094718,1.2717853,8.106883
2333,1663243319810,4.0707893,1.2669996,8.288737
2334,1663243319815,4.0348973,1.2406785,8.525927
2335,1663243319815,4.0013976,1.2047862,8.748459
2336,1663243319820,3.9918263,1.1569297,9.014361
2337,1663243319820,4.010969,1.1425728,9.25125
2338,1663243319825,4.0301113,1.1042876,9.483355
2339,1663243319825,4.0157547,1.0947163,9.679865
2340,1663243319830,4.010969,1.1473584,9.864112
2341,1663243319830,3.9508493,1.2071791,10.029217
2342,1663243319835,3.8383865,1.3076776,10.153943
2343,1663243319835,3.7067814,1.4033905,10.237692
2344,1663243319840,3.563212,1.4895321,10.2927265
2345,1663243319840,3.4217365,1.5687944,10.2520485
2346,1663243319845,3.3284163,1.6310078,10.1802635
2347,1663243319845,3.2279177,1.6932211,9.998111
2348,1663243319850,3.1609187,1.7841483,9.787542
2349,1663243319850,3.0747771,1.8774685,9.492926
2350,1663243319855,2.9790642,1.9588244,9.172287
2351,1663243319855,2.9240294,2.0282164,8.839386
2352,1663243319860,2.8785655,2.0907288,8.57139
2353,1663243319860,2.8977082,2.1361923,8.32463
2354,1663243319865,3.034099,2.1601207,8.078169
2355,1663243319865,3.2542388,2.1457636,7.8963146
2356,1663243319869,3.563212,2.126621,7.7093754
2357,1663243319870,3.8910286,2.1242282,7.5179496
2358,1663243319875,4.1665025,2.126621,7.3289165
2359,1663243319875,4.4225345,2.1768703,7.1635127
2360,1663243319880,4.6022954,2.2510478,6.996015
2361,1663243319880,4.7434716,2.315654,6.9338017
2362,1663243319885,4.8559346,2.4209383,6.9242306
2363,1663243319885,4.98754,2.5070798,7.0247293
2364,1663243319890,5.0593243,2.5549364,7.2209406
2365,1663243319890,5.157729,2.6004,7.4844503
2366,1663243319894,5.2510495,2.6341987,7.8649087
2367,1663243319894,5.337191,2.5836504,8.2456665
2368,1663243319901,5.428118,2.5573292,8.669496
2369,1663243319901,5.4640107,2.5262225,9.136395
2370,1663243319905,5.485546,2.492723,9.603294
2371,1663243319905,5.4352965,2.4711876,10.115358
2372,1663243319909,5.3419766,2.4879375,10.596615
2373,1663243319909,5.227121,2.4903302,11.097014
2374,1663243319914,5.0545387,2.545365,11.532807
2375,1663243319914,4.8846483,2.5908287,11.935101
2376,1663243319919,4.6788654,2.655734,12.279667
2377,1663243319919,4.456034,2.7203403,12.57189
2378,1663243319924,4.2981076,2.7849464,12.823136
2379,1663243319924,4.1114674,2.859124,13.03879
2380,1663243319929,3.953242,2.9165516,13.194324
2381,1663243319929,3.7905302,2.9739795,13.263715
2382,1663243319934,3.685246,3.0385857,13.292429
2383,1663243319934,3.563212,3.088835,13.24218
2384,1663243319939,3.4483566,3.1749766,13.146466
2385,1663243319939,3.3236306,3.2422748,12.976576
2386,1663243319944,3.2231321,3.2853456,12.727424
2387,1663243319944,3.0963125,3.345166,12.454642
2388,1663243319949,3.0364919,3.4193435,12.136097
2389,1663243319949,2.981457,3.4887354,11.752947
2390,1663243319954,2.926422,3.574877,11.386845
2391,1663243319954,2.8977082,3.629912,11.030015
2392,1663243319960,2.87378,3.7040894,10.654043
2393,1663243319960,2.844767,3.7208393,10.297512
2394,1663243319964,2.8833513,3.764209,9.933504
2395,1663243319964,2.9192436,3.7977087,9.603294
2396,1663243319970,2.9886355,3.8240297,9.253643
2397,1663243319970,3.0843484,3.845565,8.963813
2398,1663243319973,3.2039895,3.8934216,8.705388
2399,1663243319974,3.3284163,3.9723847,8.451749
2400,1663243319978,3.4193435,4.0178485,8.279166
2401,1663243319978,3.5105698,4.08724,8.190632
2402,1663243319983,3.6230326,4.18056,8.128419
2403,1663243319983,3.6924245,4.2451663,8.087741
2404,1663243319988,3.7881374,4.302893,8.092526
2405,1663243319988,3.9006,4.345964,8.099705
2406,1663243319993,3.9942193,4.391428,8.094919
2407,1663243319993,4.0755754,4.415356,8.111669
2408,1663243319998,4.1497526,4.4464626,8.12124
2409,1663243319998,4.171288,4.4656053,8.157132
2410,1663243320003,4.1832523,4.4799623,8.19781
2411,1663243320003,4.188038,4.5038905,8.267202
2412,1663243320008,4.159324,4.494319,8.3581295
2413,1663243320008,4.1353955,4.523033,8.439486
2414,1663243320013,4.094718,4.5134616,8.533105
2415,1663243320013,4.0301113,4.511069,8.612068
2416,1663243320018,4.008576,4.4967117,8.717352
2417,1663243320018,3.9675992,4.5014977,8.820244
2418,1663243320023,3.9269211,4.5134616,8.9159565
2419,1663243320023,3.8647077,4.511069,8.990134
2420,1663243320028,3.8024943,4.5062833,9.119645
2421,1663243320028,3.737888,4.5206404,9.196216
2422,1663243320033,3.6828532,4.525426,9.256036
2423,1663243320033,3.60389,4.5278187,9.346964
2424,1663243320038,3.5560336,4.532604,9.418748
2425,1663243320038,3.5105698,4.5373898,9.437891
2426,1663243320045,3.4842489,4.5541396,9.485747
2427,1663243320045,3.4579277,4.5732822,9.5048895
2428,1663243320048,3.4339995,4.5732822,9.528818
2429,1663243320048,3.4097722,4.5684967,9.550353
2430,1663243320053,3.400201,4.601996,9.535996
2431,1663243320053,3.3834512,4.6115675,9.526425
2432,1663243320057,3.3667014,4.616353,9.490533
2433,1663243320058,3.3403804,4.6354957,9.47139
2434,1663243320063,3.3523445,4.657031,9.430713
2435,1663243320063,3.347559,4.673781,9.387642
2436,1663243320071,3.3523445,4.6881375,9.327821
2437,1663243320071,3.4097722,4.6929235,9.208179
2438,1663243320072,3.4986057,4.685745,9.086145
2439,1663243320072,3.656532,4.690531,8.901599
2440,1663243320092,3.845565,4.700102,8.712566
2441,1663243320092,4.0157547,4.712066,8.492427
2442,1663243320092,4.188038,4.7216372,8.238488
2443,1663243320092,4.293322,4.8006005,7.975278
2444,1663243320093,4.3651066,4.86072,7.7237325
2445,1663243320093,4.4488554,4.9085765,7.446165
2446,1663243320093,4.5206404,4.9731827,7.211369
2447,1663243320093,4.5951166,5.001897,6.998408
2448,1663243320097,4.688437,5.0330033,6.773483
2449,1663243320097,4.765007,5.0712886,6.5985074
2450,1663243320102,4.8678985,5.092824,6.435796
2451,1663243320102,4.920541,5.090431,6.2898335
2452,1663243320107,4.97079,5.1215377,6.2108703
2453,1663243320107,5.037789,5.1406803,6.145965
2454,1663243320112,5.090431,5.131109,6.1124654
2455,1663243320112,5.143372,5.1239305,6.114858
2456,1663243320117,5.18405,5.119145,6.0837517
2457,1663243320117,5.2462635,5.0880384,6.1100726
2458,1663243320122,5.3012986,5.092824,6.1100726
2459,1663243320122,5.334798,5.102395,6.134001
2460,1663243320127,5.334798,5.104788,6.172286
2461,1663243320127,5.3515477,5.0880384,6.2611194
2462,1663243320131,5.380262,5.1119666,6.3664036
2463,1663243320132,5.365905,5.104788,6.483652
2464,1663243320137,5.339584,5.090431,6.6344
2465,1663243320137,5.3515477,5.1000023,6.7612195
2466,1663243320141,5.337191,5.104788,6.890731
2467,1663243320141,5.3036914,5.102395,7.043872
2468,1663243320146,5.267799,5.0976095,7.2065835
2469,1663243320146,5.282156,5.0712886,7.3289165
2470,1663243320151,5.2366924,5.049753,7.455736
2471,1663243320151,5.1936216,5.052146,7.580163
2472,1663243320156,5.1625147,5.0306106,7.685447
2473,1663243320156,5.119444,4.9995036,7.783553
2474,1663243320162,5.1146584,5.001897,7.8577304
2475,1663243320162,5.104788,4.997111,7.9513497
2476,1663243320166,5.0880384,4.977968,8.001599
2477,1663243320167,5.0832524,4.982754,8.013563
2478,1663243320171,5.092824,5.011468,8.023134
2479,1663243320171,5.0545387,5.0330033,7.999206
2480,1663243320176,5.0832524,5.0401816,7.948957
2481,1663243320176,5.104788,5.0401816,7.893922
2482,1663243320181,5.133801,5.061717,7.821838
2483,1663243320182,5.2079782,5.052146,7.7404823
2484,1663243320186,5.2845488,5.0545387,7.647162
2485,1663243320186,5.3922257,5.021039,7.5323067
2486,1663243320191,5.5046883,4.997111,7.388737
2487,1663243320191,5.5980086,5.011468,7.2735825
2488,1663243320196,5.6796637,5.009075,7.0989065
2489,1663243320196,5.7490554,4.982754,6.9673014
2490,1663243320201,5.823233,4.9660044,6.8261247
2491,1663243320202,5.9763737,4.8846483,6.725327
2492,1663243320206,6.129514,4.805386,6.6344
