,timestamp,gyro_x,gyro_y,gyro_z
0,1663945086391,0.17225893,-0.08567133,0.22066857
1,1663945086421,0.16492876,-0.08933641,0.22433366
2,1663945086421,0.15882029,-0.0917798,0.22433366
3,1663945086421,0.1551552,-0.09544489,0.22433366
4,1663945086421,0.14904673,-0.10766183,0.22677705
5,1663945086421,0.14660335,-0.11010522,0.22555535
6,1663945086422,0.14171657,-0.122322164,0.22555535
7,1663945086422,0.13438639,-0.12598725,0.22066857
8,1663945086422,0.12949961,-0.13331741,0.21944688
9,1663945086422,0.13072132,-0.1357608,0.22677705
10,1663945086422,0.12583454,-0.13942589,0.22555535
11,1663945086422,0.123391144,-0.13820419,0.22799873
12,1663945086422,0.11606098,-0.13942589,0.22555535
13,1663945086426,0.114839286,-0.13209572,0.23044212
14,1663945086426,0.108730815,-0.12843063,0.2365506
15,1663945086430,0.10995251,-0.13087402,0.24143738
16,1663945086430,0.108730815,-0.12843063,0.24754585
17,1663945086434,0.10750912,-0.12110047,0.25243264
18,1663945086434,0.10995251,-0.11865708,0.25731942
19,1663945086440,0.10628742,-0.12110047,0.26709297
20,1663945086440,0.11361759,-0.13209572,0.27564484
21,1663945086445,0.108730815,-0.13820419,0.2817533
22,1663945086445,0.10750912,-0.12720895,0.2854184
23,1663945086450,0.10628742,-0.13087402,0.28908345
24,1663945086451,0.108730815,-0.12965234,0.29763532
25,1663945086455,0.10995251,-0.12843063,0.3025221
26,1663945086456,0.105065726,-0.13331741,0.30740887
27,1663945086460,0.105065726,-0.1357608,0.31351736
28,1663945086460,0.108730815,-0.13331741,0.3245126
29,1663945086465,0.105065726,-0.13453911,0.3281777
30,1663945086465,0.105065726,-0.13453911,0.33550787
31,1663945086469,0.105065726,-0.13453911,0.33917293
32,1663945086470,0.10628742,-0.13453911,0.34161633
33,1663945086475,0.10628742,-0.13087402,0.3477248
34,1663945086475,0.10628742,-0.13209572,0.35138988
35,1663945086481,0.108730815,-0.12965234,0.35505497
36,1663945086481,0.10750912,-0.12720895,0.35627666
37,1663945086486,0.10750912,-0.122322164,0.35994175
38,1663945086486,0.10750912,-0.12110047,0.36238512
39,1663945086490,0.1111742,-0.11865708,0.36482853
40,1663945086490,0.10995251,-0.122322164,0.36116344
41,1663945086495,0.10995251,-0.12720895,0.36238512
42,1663945086495,0.11361759,-0.12598725,0.36360684
43,1663945086501,0.1123959,-0.13087402,0.35749835
44,1663945086501,0.120947756,-0.1369825,0.35261157
45,1663945086505,0.12216945,-0.14064758,0.3465031
46,1663945086505,0.12216945,-0.158973,0.33428615
47,1663945086510,0.12583454,-0.16996825,0.32939938
48,1663945086510,0.13438639,-0.17852011,0.3245126
49,1663945086514,0.14293826,-0.18951537,0.31962582
50,1663945086514,0.14904673,-0.20906247,0.3208475
51,1663945086519,0.15393351,-0.22127941,0.31473905
52,1663945086520,0.15882029,-0.22127941,0.30618718
53,1663945086525,0.1563769,-0.21639264,0.29763532
54,1663945086525,0.1551552,-0.21150586,0.2854184
55,1663945086529,0.15882029,-0.20784079,0.2780882
56,1663945086529,0.1575986,-0.20906247,0.27320144
57,1663945086533,0.1563769,-0.20784079,0.26342788
58,1663945086534,0.15393351,-0.20906247,0.2560977
59,1663945086539,0.1563769,-0.21517095,0.25487602
60,1663945086539,0.1563769,-0.21883602,0.24632415
61,1663945086544,0.14782503,-0.22250111,0.24265908
62,1663945086545,0.14660335,-0.22983128,0.23532891
63,1663945086549,0.14660335,-0.23349637,0.22677705
64,1663945086551,0.15026842,-0.24571331,0.23044212
65,1663945086554,0.15271181,-0.25548688,0.22433366
66,1663945086555,0.16248538,-0.2664821,0.22555535
67,1663945086559,0.16492876,-0.2713689,0.22189027
68,1663945086559,0.17103723,-0.26037365,0.22066857
69,1663945086564,0.17225893,-0.25304347,0.22555535
70,1663945086564,0.18325418,-0.24449162,0.22922044
71,1663945086568,0.18814096,-0.24204823,0.22677705
72,1663945086568,0.19302773,-0.2493784,0.22799873
73,1663945086574,0.20280129,-0.2481567,0.22433366
74,1663945086574,0.21135315,-0.25304347,0.22433366
75,1663945086579,0.2211267,-0.25915194,0.22066857
76,1663945086579,0.22967857,-0.26281703,0.20967332
77,1663945086585,0.23823044,-0.27503398,0.20722993
78,1663945086585,0.24922568,-0.28602922,0.20234315
79,1663945086589,0.25777754,-0.3092414,0.19501299
80,1663945086590,0.263886,-0.32145837,0.19012621
81,1663945086593,0.27243787,-0.33734038,0.18401773
82,1663945086593,0.2736596,-0.3385621,0.17913096
83,1663945086598,0.27610296,-0.3397838,0.17546588
84,1663945086599,0.27488127,-0.3422272,0.17057909
85,1663945086603,0.27121618,-0.3422272,0.1693574
86,1663945086604,0.26877278,-0.32878855,0.17180079
87,1663945086608,0.2675511,-0.3165716,0.17057909
88,1663945086608,0.26022094,-0.2896943,0.17424418
89,1663945086613,0.25655586,-0.26892552,0.17913096
90,1663945086614,0.24800399,-0.2493784,0.18279605
91,1663945086618,0.24067383,-0.22983128,0.18768282
92,1663945086618,0.23334365,-0.21394925,0.1925696
93,1663945086623,0.22967857,-0.19806722,0.19989976
94,1663945086623,0.2211267,-0.19318044,0.20234315
95,1663945086628,0.21257484,-0.19562383,0.20234315
96,1663945086628,0.20890976,-0.18218519,0.20845163
97,1663945086632,0.20402299,-0.1809635,0.2157818
98,1663945086633,0.20280129,-0.17363334,0.21944688
99,1663945086637,0.20402299,-0.16630317,0.22433366
100,1663945086638,0.20646638,-0.18462859,0.22677705
101,1663945086643,0.2015796,-0.2053974,0.22555535
102,1663945086643,0.2003579,-0.22005773,0.22189027
103,1663945086647,0.2015796,-0.22738789,0.21944688
104,1663945086647,0.20524468,-0.23593976,0.2145601
105,1663945086653,0.20646638,-0.24326992,0.21089502
106,1663945086653,0.20646638,-0.25793025,0.20234315
107,1663945086658,0.21013145,-0.27259058,0.19867808
108,1663945086658,0.20890976,-0.28725094,0.1913479
109,1663945086662,0.21013145,-0.30435464,0.18279605
110,1663945086663,0.20768806,-0.32023668,0.17790927
111,1663945086667,0.20890976,-0.3397838,0.17057909
112,1663945086667,0.20768806,-0.3556658,0.16324893
113,1663945086673,0.20646638,-0.36421767,0.15714046
114,1663945086673,0.20646638,-0.3556658,0.15347537
115,1663945086677,0.20768806,-0.34344888,0.14614521
116,1663945086677,0.20768806,-0.33367532,0.14614521
117,1663945086686,0.20646638,-0.32145837,0.14370182
118,1663945086686,0.20402299,-0.31046313,0.13759334
119,1663945086687,0.20402299,-0.3092414,0.13759334
120,1663945086687,0.19791451,-0.30557635,0.13392825
121,1663945086693,0.19913621,-0.30801973,0.13392825
122,1663945086693,0.19180603,-0.30679804,0.13148487
123,1663945086698,0.18936265,-0.3141282,0.12781979
124,1663945086698,0.18814096,-0.31901497,0.12781979
125,1663945086702,0.18447587,-0.32512346,0.12293301
126,1663945086702,0.1795891,-0.32512346,0.12171131
127,1663945086707,0.175924,-0.32756683,0.12171131
128,1663945086707,0.16981554,-0.3324536,0.11560284
129,1663945086710,0.16492876,-0.334897,0.11438115
130,1663945086714,0.1563769,-0.3361187,0.11193776
131,1663945086714,0.14660335,-0.3361187,0.107050985
132,1663945086719,0.13438639,-0.334897,0.10582929
133,1663945086719,0.12705623,-0.32390177,0.107050985
134,1663945086724,0.120947756,-0.31046313,0.103385895
135,1663945086724,0.11850437,-0.30313295,0.103385895
136,1663945086729,0.11850437,-0.30435464,0.09605573
137,1663945086729,0.114839286,-0.30068958,0.08994726
138,1663945086734,0.114839286,-0.2945811,0.08506048
139,1663945086734,0.11850437,-0.28602922,0.08506048
140,1663945086739,0.12216945,-0.28236416,0.08506048
141,1663945086739,0.11972606,-0.2738123,0.08383878
142,1663945086747,0.11972606,-0.26281703,0.081395395
143,1663945086747,0.11361759,-0.25670856,0.08261709
144,1663945086749,0.10750912,-0.2506001,0.0801737
145,1663945086749,0.10140064,-0.24693501,0.07895201
146,1663945086755,0.092848785,-0.24082653,0.081395395
147,1663945086755,0.087962,-0.23227467,0.08261709
148,1663945086759,0.07941014,-0.22250111,0.08383878
149,1663945086759,0.07330167,-0.21394925,0.08383878
150,1663945086763,0.06230642,-0.19684553,0.08383878
151,1663945086764,0.054976255,-0.18340689,0.08628218
152,1663945086768,0.04886778,-0.17118995,0.08750387
153,1663945086768,0.039094225,-0.158973,0.08994726
154,1663945086773,0.03298575,-0.14431266,0.09239065
155,1663945086773,0.025655584,-0.12965234,0.09605573
156,1663945086778,0.019547112,-0.10888352,0.097277425
157,1663945086778,0.01099525,-0.07345438,0.10094251
158,1663945086784,0.007330167,-0.05390727,0.10582929
159,1663945086784,0.002443389,-0.051463883,0.10827268
160,1663945086788,-0.0061084726,-0.055128966,0.10582929
161,1663945086788,-0.01343864,-0.058794048,0.09972081
162,1663945086793,-0.018325418,-0.06123744,0.097277425
163,1663945086793,-0.020768806,-0.06490252,0.09605573
164,1663945086799,-0.025655584,-0.06368083,0.091168955
165,1663945086799,-0.031764057,-0.06490252,0.08628218
166,1663945086803,-0.035429142,-0.06368083,0.08261709
167,1663945086803,-0.03787253,-0.06490252,0.081395395
168,1663945086808,-0.039094225,-0.06368083,0.081395395
169,1663945086808,-0.042759307,-0.06490252,0.07773031
170,1663945086813,-0.047646087,-0.062459134,0.07406523
171,1663945086814,-0.046424393,-0.06368083,0.07650862
172,1663945086819,-0.05375456,-0.06368083,0.07406523
173,1663945086819,-0.05619795,-0.06490252,0.07284354
174,1663945086823,-0.06352811,-0.07101099,0.07284354
175,1663945086824,-0.0684149,-0.074676074,0.06795676
176,1663945086829,-0.076966755,-0.07711947,0.069178455
177,1663945086829,-0.08429692,-0.08078455,0.06306998
178,1663945086833,-0.087962,-0.082006246,0.065513365
179,1663945086833,-0.0891837,-0.08078455,0.06673507
180,1663945086838,-0.09651387,-0.07956286,0.06306998
181,1663945086839,-0.09651387,-0.06001574,0.07040015
182,1663945086844,-0.10140064,-0.055128966,0.07162184
183,1663945086844,-0.10628742,-0.06123744,0.07406523
184,1663945086848,-0.10995251,-0.06001574,0.07773031
185,1663945086848,-0.11606098,-0.06001574,0.07650862
186,1663945086853,-0.11850437,-0.066124216,0.07650862
187,1663945086853,-0.11850437,-0.0697893,0.075286925
188,1663945086858,-0.11850437,-0.06734591,0.07284354
189,1663945086859,-0.12216945,-0.06368083,0.07162184
190,1663945086863,-0.12216945,-0.062459134,0.069178455
191,1663945086864,-0.12705623,-0.058794048,0.06673507
192,1663945086868,-0.12827793,-0.052685577,0.06673507
193,1663945086869,-0.12949961,-0.04046863,0.06673507
194,1663945086872,-0.13438639,-0.039246935,0.06429167
195,1663945086873,-0.13438639,-0.044133715,0.061848287
196,1663945086877,-0.1368298,-0.051463883,0.056961507
197,1663945086878,-0.13560809,-0.06123744,0.04963134
198,1663945086882,-0.13438639,-0.06490252,0.041079476
199,1663945086882,-0.13805148,-0.074676074,0.032527618
200,1663945086904,-0.14293826,-0.090558104,0.016645588
201,1663945086904,-0.14782503,-0.103996746,0.008093726
202,1663945086904,-0.15149012,-0.112548605,0.0019852535
203,1663945086904,-0.15271181,-0.11987878,-0.004123219
204,1663945086904,-0.1551552,-0.12354386,-0.011453386
205,1663945086904,-0.15393351,-0.12354386,-0.013896775
206,1663945086904,-0.1551552,-0.12476555,-0.0151184695
207,1663945086907,-0.1575986,-0.122322164,-0.020005248
208,1663945086907,-0.1563769,-0.122322164,-0.018783553
209,1663945086912,-0.16004199,-0.11865708,-0.02367033
210,1663945086912,-0.16248538,-0.11865708,-0.027335415
211,1663945086917,-0.16248538,-0.116213694,-0.02611372
212,1663945086917,-0.16248538,-0.112548605,-0.028557109
213,1663945086922,-0.16981554,-0.11132691,-0.028557109
214,1663945086922,-0.16370706,-0.11010522,-0.028557109
215,1663945086927,-0.16004199,-0.114992,-0.032222193
216,1663945086927,-0.1551552,-0.12110047,-0.032222193
217,1663945086931,-0.15393351,-0.122322164,-0.032222193
218,1663945086931,-0.14904673,-0.12354386,-0.03466558
219,1663945086936,-0.14415996,-0.11743539,-0.03466558
220,1663945086936,-0.14904673,-0.10766183,-0.037108973
221,1663945086941,-0.15149012,-0.10888352,-0.03955236
222,1663945086941,-0.15149012,-0.09422319,-0.040774055
223,1663945086946,-0.1575986,-0.088114716,-0.04566083
224,1663945086946,-0.16615045,-0.082006246,-0.048104223
225,1663945086951,-0.17225893,-0.074676074,-0.048104223
226,1663945086951,-0.1795891,-0.072232686,-0.051769305
227,1663945086956,-0.18936265,-0.062459134,-0.04688253
228,1663945086956,-0.19669282,-0.050242186,-0.043217443
229,1663945086961,-0.20890976,-0.04902049,-0.043217443
230,1663945086961,-0.2247918,-0.05390727,-0.040774055
231,1663945086967,-0.23578705,-0.055128966,-0.037108973
232,1663945086967,-0.2455606,-0.055128966,-0.035887275
233,1663945086971,-0.24922568,-0.06368083,-0.031000499
234,1663945086971,-0.25655586,-0.062459134,-0.031000499
235,1663945086977,-0.26022094,-0.075897776,-0.027335415
236,1663945086977,-0.2699945,-0.084449634,-0.029778805
237,1663945086982,-0.2736596,-0.09300149,-0.024892027
238,1663945086982,-0.28098974,-0.10277505,-0.02367033
239,1663945086986,-0.2907633,-0.114992,-0.02611372
240,1663945086987,-0.29442838,-0.12843063,-0.017561859
241,1663945086992,-0.3090887,-0.1357608,-0.020005248
242,1663945086992,-0.3164189,-0.13942589,-0.013896775
243,1663945086997,-0.32374904,-0.14309096,-0.006566608
244,1663945086997,-0.3384094,-0.13942589,-0.0029015245
245,1663945087001,-0.34818295,-0.14186928,0.009315421
246,1663945087001,-0.36039987,-0.13820419,0.017867282
247,1663945087007,-0.37261683,-0.13453911,0.023975754
248,1663945087007,-0.38727716,-0.1369825,0.0361927
249,1663945087010,-0.3970507,-0.13453911,0.045966256
250,1663945087011,-0.40926766,-0.13820419,0.05451812
251,1663945087016,-0.41293275,-0.13942589,0.069178455
252,1663945087016,-0.4227063,-0.14309096,0.07650862
253,1663945087020,-0.43125817,-0.14675605,0.08383878
254,1663945087020,-0.43247986,-0.1565296,0.09849912
255,1663945087025,-0.43981004,-0.158973,0.103385895
256,1663945087026,-0.4422534,-0.16263808,0.113159455
257,1663945087031,-0.4446968,-0.16874656,0.1253764
258,1663945087031,-0.44836187,-0.16874656,0.12781979
259,1663945087036,-0.4495836,-0.17241164,0.14003673
260,1663945087036,-0.45080528,-0.17485502,0.1485886
261,1663945087040,-0.45324868,-0.17241164,0.14981028
262,1663945087040,-0.4495836,-0.17241164,0.1681357
263,1663945087046,-0.4495836,-0.16752486,0.1681357
264,1663945087046,-0.4459185,-0.16263808,0.18035266
265,1663945087050,-0.44836187,-0.1601947,0.18768282
266,1663945087051,-0.45080528,-0.15286453,0.18401773
267,1663945087056,-0.4446968,-0.15042114,0.19745637
268,1663945087056,-0.45080528,-0.1357608,0.19745637
269,1663945087060,-0.45202696,-0.11743539,0.19623469
270,1663945087060,-0.4459185,-0.097888276,0.21089502
271,1663945087065,-0.4459185,-0.082006246,0.20356485
272,1663945087065,-0.4434751,-0.062459134,0.21089502
273,1663945087070,-0.4471402,-0.044133715,0.2121167
274,1663945087070,-0.4471402,-0.029473381,0.21089502
275,1663945087076,-0.45324868,-0.012369657,0.2157818
276,1663945087076,-0.45691374,0.014507622,0.2133384
277,1663945087080,-0.47035238,0.03771982,0.20600824
278,1663945087080,-0.48012593,0.063375406,0.20478654
279,1663945087085,-0.49600798,0.08414421,0.19501299
280,1663945087085,-0.5094466,0.08536591,0.19012621
281,1663945087090,-0.527772,0.093917765,0.18646112
282,1663945087090,-0.5509842,0.09147438,0.1693574
283,1663945087095,-0.56808794,0.081700824,0.16080554
284,1663945087095,-0.58519167,0.08903099,0.15103199
285,1663945087100,-0.6010737,0.10491302,0.13637166
286,1663945087100,-0.61939913,0.12201674,0.12781979
287,1663945087105,-0.6303944,0.1293469,0.12171131
288,1663945087105,-0.6487198,0.13912046,0.11071607
289,1663945087110,-0.65971506,0.14034216,0.103385895
290,1663945087111,-0.671932,0.14645062,0.09972081
291,1663945087115,-0.69025743,0.14400724,0.091168955
292,1663945087115,-0.7049177,0.14400724,0.08750387
293,1663945087120,-0.71713465,0.13056861,0.08628218
294,1663945087121,-0.72202146,0.13545538,0.08994726
295,1663945087126,-0.7195781,0.15866758,0.09605573
296,1663945087126,-0.7134696,0.17821468,0.09972081
297,1663945087130,-0.7073611,0.1977618,0.10460759
298,1663945087130,-0.687814,0.21364383,0.113159455
299,1663945087135,-0.6731537,0.23074755,0.11804623
300,1663945087135,-0.6487198,0.24662958,0.1253764
301,1663945087140,-0.61939913,0.25518143,0.13637166
302,1663945087140,-0.5986303,0.2600682,0.13759334
303,1663945087145,-0.57053137,0.26128992,0.14370182
304,1663945087145,-0.54609746,0.2625116,0.15591876
305,1663945087151,-0.52288526,0.26495498,0.15714046
306,1663945087151,-0.5008947,0.2857238,0.16447063
307,1663945087154,-0.48379102,0.30649263,0.17180079
308,1663945087155,-0.467909,0.34680852,0.18279605
309,1663945087160,-0.45691374,0.38223767,0.1937913
310,1663945087160,-0.45691374,0.4237753,0.19623469
311,1663945087165,-0.46180052,0.45920444,0.20112146
312,1663945087165,-0.48134765,0.49585527,0.20112146
313,1663945087169,-0.49600798,0.5361712,0.20112146
314,1663945087169,-0.5204419,0.5801522,0.20478654
315,1663945087176,-0.54243237,0.63024163,0.20845163
316,1663945087176,-0.57297474,0.6852179,0.20112146
317,1663945087179,-0.6071822,0.7243121,0.19745637
318,1663945087180,-0.643833,0.7560762,0.19012621
319,1663945087190,-0.6768188,0.78784025,0.17424418
320,1663945087190,-0.70980453,0.81227416,0.15103199
321,1663945087190,-0.74034685,0.8403731,0.13026318
322,1663945087190,-0.759894,0.86236364,0.107050985
323,1663945087195,-0.79165804,0.8867975,0.07650862
324,1663945087195,-0.8136485,0.9039012,0.05451812
325,1663945087200,-0.8405258,0.9234483,0.028862532
326,1663945087200,-0.86618143,0.9185616,0.0007635591
327,1663945087204,-0.891837,0.9063446,-0.021226943
328,1663945087204,-0.9113841,0.9185616,-0.038330667
329,1663945087210,-0.9345963,0.9393304,-0.060321167
330,1663945087210,-0.9468132,0.9539907,-0.07131642
331,1663945087214,-0.95292175,0.9576558,-0.08231167
332,1663945087214,-0.9614736,0.9588775,-0.09575031
333,1663945087219,-0.96391696,0.9503256,-0.10430217
334,1663945087219,-0.9614736,0.9417738,-0.11163234
335,1663945087223,-0.9565868,0.9320002,-0.11774081
336,1663945087224,-0.94925666,0.92467004,-0.122627586
337,1663945087229,-0.9419265,0.9124531,-0.12507097
338,1663945087229,-0.9333746,0.89412767,-0.12140589
339,1663945087233,-0.9272661,0.87946737,-0.11407573
340,1663945087233,-0.919936,0.864807,-0.10552386
341,1663945087238,-0.9113841,0.85869855,-0.09330692
342,1663945087238,-0.90527564,0.8452599,-0.07986828
343,1663945087243,-0.90161055,0.81960434,-0.07131642
344,1663945087244,-0.9040539,0.76951486,-0.06154286
345,1663945087248,-0.8955021,0.74874604,-0.04688253
346,1663945087248,-0.8845068,0.7389725,-0.031000499
347,1663945087253,-0.86618143,0.73775077,-0.013896775
348,1663945087253,-0.8417475,0.72919893,0.004428643
349,1663945087258,-0.8173136,0.7194254,0.02519745
350,1663945087258,-0.7904363,0.70598674,0.044744562
351,1663945087263,-0.7611157,0.6925481,0.06062659
352,1663945087263,-0.7366818,0.676666,0.075286925
353,1663945087268,-0.7134696,0.6497888,0.091168955
354,1663945087268,-0.700031,0.6265766,0.09972081
355,1663945087273,-0.6804838,0.6021427,0.11071607
356,1663945087274,-0.65116316,0.5862607,0.12904148
357,1663945087278,-0.643833,0.56427014,0.12659809
358,1663945087279,-0.6413896,0.54105794,0.12048962
359,1663945087283,-0.6487198,0.5276193,0.11193776
360,1663945087283,-0.65116316,0.5154024,0.09605573
361,1663945087288,-0.65482825,0.5044071,0.08872557
362,1663945087288,-0.6572716,0.49219018,0.081395395
363,1663945087294,-0.65849334,0.47997323,0.075286925
364,1663945087294,-0.6609367,0.45676103,0.06673507
365,1663945087298,-0.67437536,0.3993414,0.048409645
366,1663945087298,-0.6841489,0.34558684,0.0361927
367,1663945087303,-0.67926216,0.34558684,0.03130592
368,1663945087303,-0.66704524,0.34803024,0.03863609
369,1663945087308,-0.6646018,0.34436515,0.045966256
370,1663945087308,-0.67071027,0.32481802,0.04718795
371,1663945087313,-0.68292725,0.2869455,0.037414394
372,1663945087313,-0.69880927,0.2441862,0.026419144
373,1663945087318,-0.7110262,0.21120045,0.014202199
374,1663945087318,-0.72079974,0.18065807,0.0019852535
375,1663945087323,-0.72202146,0.1537808,-0.006566608
376,1663945087323,-0.72690827,0.1317903,-0.02367033
377,1663945087327,-0.72446483,0.115908265,-0.02611372
378,1663945087328,-0.72079974,0.100026235,-0.03466558
379,1663945087332,-0.7146913,0.09025268,-0.03955236
380,1663945087333,-0.7085828,0.09269607,-0.040774055
381,1663945087337,-0.70125264,0.09758285,-0.04566083
382,1663945087337,-0.69392246,0.10613471,-0.04688253
383,1663945087342,-0.6853706,0.12201674,-0.03955236
384,1663945087342,-0.6853706,0.13423368,-0.040774055
385,1663945087347,-0.68659234,0.12446013,-0.038330667
386,1663945087347,-0.6927008,0.11468657,-0.038330667
387,1663945087352,-0.687814,0.14767233,-0.03466558
388,1663945087353,-0.67804044,0.19531842,-0.016340164
389,1663945087357,-0.66704524,0.2405211,-0.00045813544
390,1663945087358,-0.65116316,0.28205872,0.016645588
391,1663945087363,-0.63528115,0.33336988,0.03130592
392,1663945087363,-0.62795097,0.37002072,0.041079476
393,1663945087367,-0.6328378,0.40178478,0.053296424
394,1663945087367,-0.6291727,0.42866206,0.06673507
395,1663945087371,-0.6096256,0.47142136,0.09483404
396,1663945087372,-0.5974086,0.49952033,0.11071607
397,1663945087377,-0.58763504,0.5044071,0.13026318
398,1663945087377,-0.58396995,0.49952033,0.15347537
399,1663945087382,-0.5790832,0.49829865,0.16447063
400,1663945087382,-0.5741964,0.49952033,0.18035266
401,1663945087390,-0.5790832,0.46653458,0.17424418
402,1663945087419,-0.57053137,0.47630814,0.17790927
403,1663945087419,-0.5509842,0.5105156,0.18401773
404,1663945087419,-0.54243237,0.53739285,0.18279605
405,1663945087419,-0.527772,0.5581617,0.1913479
406,1663945087419,-0.52166355,0.5679352,0.18890451
407,1663945087419,-0.51189,0.5801522,0.18646112
408,1663945087419,-0.50333816,0.58992577,0.18646112
409,1663945087419,-0.49356458,0.600921,0.17790927
410,1663945087419,-0.47890425,0.6204681,0.17790927
411,1663945087419,-0.4666873,0.6339067,0.17302248
412,1663945087420,-0.46180052,0.65834063,0.15714046
413,1663945087420,-0.44836187,0.673001,0.15103199
414,1663945087421,-0.43858832,0.6839962,0.14125843
415,1663945087421,-0.4300365,0.6998783,0.1253764
416,1663945087427,-0.4263714,0.673001,0.113159455
417,1663945087427,-0.43125817,0.6424586,0.08994726
418,1663945087431,-0.42148462,0.673001,0.08261709
419,1663945087431,-0.40560257,0.70109993,0.07650862
420,1663945087436,-0.39460734,0.7096518,0.06429167
421,1663945087436,-0.38849884,0.7096518,0.05451812
422,1663945087441,-0.37506023,0.72186875,0.048409645
423,1663945087441,-0.37139514,0.74141586,0.041079476
424,1663945087445,-0.37017342,0.7499677,0.034971006
425,1663945087446,-0.36773005,0.7511894,0.027640838
426,1663945087451,-0.37139514,0.7426376,0.017867282
427,1663945087452,-0.3811687,0.7279772,0.009315421
428,1663945087456,-0.39216393,0.7120952,-0.00167983
429,1663945087456,-0.40560257,0.6913264,-0.009009997
430,1663945087461,-0.41904122,0.67055756,-0.0151184695
431,1663945087461,-0.43492326,0.65223217,-0.02367033
432,1663945087465,-0.4471402,0.6339067,-0.02611372
433,1663945087466,-0.4654656,0.61313796,-0.033443887
434,1663945087472,-0.48012593,0.5911474,-0.038330667
435,1663945087473,-0.49356458,0.56182677,-0.04566083
436,1663945087475,-0.52532864,0.47019967,-0.06520794
437,1663945087475,-0.5473192,0.4188885,-0.0749815
438,1663945087480,-0.5595361,0.41522342,-0.078646585
439,1663945087480,-0.5595361,0.4201102,-0.072538115
440,1663945087485,-0.5583144,0.4421007,-0.06642964
441,1663945087485,-0.5522059,0.4616478,-0.05787778
442,1663945087491,-0.5570927,0.47997323,-0.051769305
443,1663945087491,-0.5632012,0.4909685,-0.05054761
444,1663945087495,-0.5668663,0.49829865,-0.049325917
445,1663945087495,-0.5741964,0.49585527,-0.049325917
446,1663945087500,-0.5803049,0.48486,-0.05054761
447,1663945087500,-0.59374356,0.48241663,-0.055434387
448,1663945087505,-0.6096256,0.42866206,-0.06520794
449,1663945087505,-0.6291727,0.36635566,-0.0762032
450,1663945087511,-0.63650286,0.34192175,-0.07986828
451,1663945087511,-0.63650286,0.33703497,-0.08108997
452,1663945087515,-0.6328378,0.34558684,-0.08108997
453,1663945087515,-0.6230642,0.3553604,-0.07742489
454,1663945087520,-0.61084723,0.37857258,-0.07375981
455,1663945087520,-0.5949652,0.40667155,-0.06765133
456,1663945087525,-0.59130013,0.4188885,-0.068873025
457,1663945087525,-0.5900785,0.42133188,-0.068873025
458,1663945087530,-0.58519167,0.4201102,-0.068873025
459,1663945087530,-0.58519167,0.4188885,-0.0749815
460,1663945087535,-0.5790832,0.41033664,-0.0749815
461,1663945087535,-0.5864134,0.38590276,-0.084755056
462,1663945087541,-0.59252185,0.35658208,-0.094528615
463,1663945087541,-0.59252185,0.34436515,-0.103080474
464,1663945087545,-0.5900785,0.34192175,-0.10430217
465,1663945087546,-0.58396995,0.3541387,-0.109188944
466,1663945087550,-0.5754181,0.3553604,-0.11285403
467,1663945087551,-0.56564456,0.36146885,-0.11774081
468,1663945087555,-0.56075776,0.37979427,-0.12140589
469,1663945087555,-0.54976255,0.3981197,-0.118962504
470,1663945087560,-0.5387673,0.41155833,-0.12140589
471,1663945087560,-0.5351022,0.41766682,-0.12507097
472,1663945087565,-0.53021544,0.42866206,-0.12873606
473,1663945087565,-0.52532864,0.43599224,-0.13117945
474,1663945087571,-0.5204419,0.43232715,-0.13240114
475,1663945087571,-0.5167768,0.43599224,-0.13606623
476,1663945087575,-0.5094466,0.44943088,-0.13973132
477,1663945087575,-0.50333816,0.4640912,-0.14339639
478,1663945087580,-0.50211644,0.47386476,-0.15194826
479,1663945087580,-0.4947863,0.47386476,-0.15439165
480,1663945087586,-0.48623443,0.47875154,-0.15683503
481,1663945087586,-0.49356458,0.43599224,-0.17516045
482,1663945087590,-0.50700325,0.3736858,-0.19226417
483,1663945087590,-0.50333816,0.34192175,-0.2081462
484,1663945087595,-0.49356458,0.3504736,-0.21547636
485,1663945087595,-0.47646087,0.36391225,-0.21791977
486,1663945087600,-0.45691374,0.39078954,-0.21547636
487,1663945087600,-0.43736663,0.4164451,-0.21181129
488,1663945087604,-0.42514968,0.43110546,-0.2081462
489,1663945087605,-0.4202629,0.43354884,-0.21058959
490,1663945087609,-0.41659784,0.4262187,-0.21058959
491,1663945087611,-0.41415444,0.41766682,-0.21791977
492,1663945087614,-0.41415444,0.40911496,-0.22769332
493,1663945087615,-0.41659784,0.40422818,-0.23502348
494,1663945087620,-0.41048935,0.38956785,-0.23991026
495,1663945087620,-0.4043809,0.37246412,-0.23868857
496,1663945087631,-0.39460734,0.3541387,-0.23502348
497,1663945087631,-0.38972056,0.34314343,-0.23991026
498,1663945087631,-0.379947,0.32970482,-0.23502348
499,1663945087631,-0.3787253,0.28450212,-0.24113196
500,1663945087635,-0.40193748,0.16844113,-0.2533489
501,1663945087635,-0.4007158,0.1293469,-0.2557923
502,1663945087639,-0.38972056,0.12446013,-0.26190075
503,1663945087640,-0.3811687,0.1537808,-0.26190075
504,1663945087644,-0.37261683,0.18676655,-0.2533489
505,1663945087644,-0.36039987,0.21486552,-0.24357535
506,1663945087649,-0.35306972,0.22952586,-0.2301367
507,1663945087649,-0.351848,0.23685603,-0.22280654
508,1663945087654,-0.3567348,0.22708246,-0.21791977
509,1663945087654,-0.36284328,0.21853061,-0.21669807
510,1663945087659,-0.3738385,0.20875706,-0.21547636
511,1663945087659,-0.38239038,0.19409671,-0.21669807
512,1663945087664,-0.38972056,0.18187977,-0.21425468
513,1663945087664,-0.40193748,0.17821468,-0.21791977
514,1663945087669,-0.41904122,0.18187977,-0.22524993
515,1663945087669,-0.4227063,0.18798824,-0.22647162
516,1663945087674,-0.423928,0.17821468,-0.22524993
517,1663945087674,-0.4263714,0.16233265,-0.22769332
518,1663945087678,-0.42514968,0.1317903,-0.22769332
519,1663945087678,-0.4459185,0.027946262,-0.24601874
520,1663945087684,-0.45813546,-0.017256435,-0.2545706
521,1663945087684,-0.45447037,-0.012369657,-0.2557923
522,1663945087691,-0.4471402,0.034054734,-0.2582357
523,1663945087691,-0.44103172,0.09513946,-0.2582357
524,1663945087693,-0.43125817,0.13423368,-0.2533489
525,1663945087694,-0.4263714,0.14889401,-0.24968381
526,1663945087699,-0.4263714,0.14645062,-0.24846213
527,1663945087699,-0.42881477,0.14034216,-0.2521272
528,1663945087703,-0.42759308,0.13789877,-0.25701398
529,1663945087703,-0.4263714,0.13423368,-0.26067907
530,1663945087708,-0.42759308,0.1317903,-0.26434416
531,1663945087709,-0.423928,0.1317903,-0.27289602
532,1663945087711,-0.42148462,0.133012,-0.28022617
533,1663945087716,-0.4202629,0.13667707,-0.28877804
534,1663945087716,-0.41904122,0.14278555,-0.2973299
535,1663945087720,-0.42514968,0.15011571,-0.30954686
536,1663945087720,-0.4300365,0.15866758,-0.3242072
537,1663945087725,-0.4263714,0.15622419,-0.32909396
538,1663945087725,-0.41904122,0.14522894,-0.33153734
539,1663945087730,-0.41659784,0.14278555,-0.3425326
540,1663945087730,-0.41659784,0.13789877,-0.34986275
541,1663945087735,-0.41293275,0.13912046,-0.36085802
542,1663945087735,-0.41293275,0.15011571,-0.37063158
543,1663945087740,-0.41171107,0.16355436,-0.3852919
544,1663945087740,-0.41048935,0.18432316,-0.39262208
545,1663945087745,-0.40560257,0.20509197,-0.40361732
546,1663945087745,-0.40682426,0.22708246,-0.41705596
547,1663945087750,-0.4043809,0.2600682,-0.4280512
548,1663945087751,-0.40804598,0.30282754,-0.44393325
549,1663945087755,-0.4007158,0.32115296,-0.4537068
550,1663945087755,-0.39216393,0.33336988,-0.4512634
551,1663945087760,-0.3811687,0.3345916,-0.44759834
552,1663945087760,-0.37017342,0.32970482,-0.44393325
553,1663945087765,-0.3616216,0.32359633,-0.43660307
554,1663945087766,-0.36284328,0.31382278,-0.4378248
555,1663945087770,-0.351848,0.3052709,-0.4280512
556,1663945087770,-0.3542914,0.30282754,-0.42194274
557,1663945087775,-0.36284328,0.30404922,-0.4280512
558,1663945087775,-0.3579565,0.30038413,-0.41827765
559,1663945087780,-0.36528665,0.29183227,-0.41339087
560,1663945087780,-0.36406496,0.27839363,-0.4109475
561,1663945087785,-0.36773005,0.2661767,-0.39873055
562,1663945087786,-0.37017342,0.25518143,-0.39506546
563,1663945087791,-0.37017342,0.2405211,-0.39140037
564,1663945087791,-0.37628192,0.22586077,-0.3877353
565,1663945087795,-0.3738385,0.21242213,-0.388957
566,1663945087795,-0.3775036,0.1977618,-0.3816268
567,1663945087800,-0.38361207,0.18432316,-0.3816268
568,1663945087800,-0.39460734,0.16111097,-0.38284853
569,1663945087805,-0.4031592,0.1281252,-0.38284853
570,1663945087805,-0.41415444,0.05971032,-0.3877353
571,1663945087810,-0.40560257,0.07314896,-0.37307495
572,1663945087810,-0.39460734,0.115908265,-0.35474956
573,1663945087815,-0.38972056,0.15866758,-0.3437543
574,1663945087815,-0.38972056,0.18920994,-0.33275905
575,1663945087819,-0.39094225,0.20753536,-0.33153734
576,1663945087819,-0.38972056,0.2197523,-0.32665056
577,1663945087825,-0.38239038,0.22463907,-0.316877
578,1663945087825,-0.37628192,0.22341739,-0.316877
579,1663945087830,-0.37017342,0.22341739,-0.31565532
580,1663945087830,-0.36039987,0.22341739,-0.31321192
581,1663945087837,-0.34940463,0.22586077,-0.31443363
582,1663945087837,-0.335966,0.22830416,-0.316877
583,1663945087840,-0.32619244,0.22708246,-0.31565532
584,1663945087840,-0.3151972,0.22586077,-0.3229855
585,1663945087845,-0.3115321,0.22341739,-0.32909396
586,1663945087846,-0.30298024,0.21730891,-0.32665056
587,1663945087854,-0.29442838,0.20997874,-0.33764583
588,1663945087854,-0.28465483,0.20020519,-0.3400892
589,1663945087855,-0.27854636,0.19043164,-0.3425326
590,1663945087855,-0.2699945,0.17943639,-0.34864107
591,1663945087859,-0.263886,0.16844113,-0.35108447
592,1663945087859,-0.25411245,0.15744588,-0.35719293
593,1663945087865,-0.25166908,0.15500249,-0.35841462
594,1663945087865,-0.2455606,0.16111097,-0.3645231
595,1663945087869,-0.24678229,0.176993,-0.37063158
596,1663945087869,-0.24311721,0.19898349,-0.37429667
597,1663945087874,-0.23700874,0.22463907,-0.37796175
598,1663945087874,-0.22723518,0.25273806,-0.37307495
599,1663945087878,-0.2211267,0.28083703,-0.3669665
600,1663945087879,-0.21135315,0.30649263,-0.35963634
601,1663945087883,-0.2003579,0.32726142,-0.34131092
602,1663945087883,-0.19424942,0.34925193,-0.32665056
603,1663945087890,-0.18814096,0.36513394,-0.30221668
604,1663945087890,-0.18814096,0.3736858,-0.28389126
605,1663945087918,-0.19058435,0.38834614,-0.26556584
606,1663945087918,-0.19547112,0.3981197,-0.24601874
607,1663945087919,-0.19791451,0.41278005,-0.2325801
608,1663945087919,-0.19913621,0.43232715,-0.22402823
609,1663945087919,-0.19180603,0.45798272,-0.2093679
610,1663945087919,-0.17470232,0.48363832,-0.20081604
611,1663945087919,-0.15393351,0.5202891,-0.184934
612,1663945087919,-0.11850437,0.5508315,-0.16905198
613,1663945087919,-0.08674031,0.5813739,-0.15316994
614,1663945087919,-0.054976255,0.61191624,-0.13973132
615,1663945087919,-0.025655584,0.64001524,-0.13117945
616,1663945087919,-0.002443389,0.673001,-0.12384928
617,1663945087925,0.023212196,0.6962132,-0.1201842
618,1663945087925,0.047646087,0.7145386,-0.11407573
619,1663945087928,0.07207998,0.7243121,-0.109188944
620,1663945087928,0.09407048,0.7340857,-0.10552386
621,1663945087933,0.114839286,0.7316423,-0.09941539
622,1663945087933,0.13072132,0.7243121,-0.0981937
623,1663945087937,0.14538164,0.7194254,-0.0981937
624,1663945087937,0.15393351,0.7096518,-0.094528615
625,1663945087942,0.16981554,0.70109993,-0.09086353
626,1663945087942,0.1808108,0.6852179,-0.08964183
627,1663945087947,0.1808108,0.67544436,-0.0981937
628,1663945087948,0.1783674,0.6681142,-0.116519116
629,1663945087953,0.1808108,0.64734536,-0.13484453
630,1663945087953,0.19547112,0.62779826,-0.14706148
631,1663945087957,0.21868332,0.6058078,-0.15927842
632,1663945087958,0.25411245,0.58381724,-0.15927842
633,1663945087962,0.27976805,0.56549186,-0.15805672
634,1663945087962,0.3151972,0.5483881,-0.15316994
635,1663945087967,0.35062632,0.54472303,-0.14583978
636,1663945087967,0.3811687,0.5398363,-0.14339639
637,1663945087972,0.41781953,0.5361712,-0.13973132
638,1663945087972,0.45324868,0.5398363,-0.140953
639,1663945087977,0.48134765,0.5386146,-0.15072656
640,1663945087977,0.51066834,0.53006274,-0.16050012
641,1663945087982,0.539989,0.5117373,-0.17027368
642,1663945087982,0.57053137,0.47997323,-0.17882554
643,1663945087988,0.6010737,0.4445441,-0.1873774
644,1663945087988,0.63528115,0.40789327,-0.18982078
645,1663945087992,0.6682669,0.37002072,-0.19470756
646,1663945087992,0.70247436,0.33947837,-0.184934
647,1663945087997,0.731795,0.31504446,-0.17760384
648,1663945087997,0.7562289,0.29183227,-0.17271706
649,1663945088002,0.7855496,0.25640315,-0.14706148
650,1663945088002,0.80754006,0.22219568,-0.13850962
651,1663945088007,0.8405258,0.18187977,-0.116519116
652,1663945088007,0.8710682,0.14400724,-0.10430217
653,1663945088012,0.907719,0.109799795,-0.084755056
654,1663945088012,0.9419265,0.08292252,-0.068873025
655,1663945088016,0.9846858,0.06215371,-0.055434387
656,1663945088017,1.0286667,0.042606596,-0.032222193
657,1663945088022,1.0677611,0.030389652,-0.013896775
658,1663945088022,1.111742,0.008399149,0.004428643
659,1663945088027,1.1520579,-0.007482879,0.017867282
660,1663945088027,1.1923739,-0.024586603,0.03130592
661,1663945088031,1.2314681,-0.057572354,0.04963134
662,1663945088032,1.2607888,-0.090558104,0.05207473
663,1663945088037,1.287666,-0.12843063,0.06306998
664,1663945088037,1.3096565,-0.16996825,0.06795676
665,1663945088042,1.3401989,-0.21639264,0.07406523
666,1663945088042,1.3609676,-0.25304347,0.09483404
667,1663945088046,1.3780714,-0.28847262,0.103385895
668,1663945088047,1.4012836,-0.31046313,0.12171131
669,1663945088052,1.4232742,-0.32634515,0.14370182
670,1663945088052,1.447708,-0.31779328,0.16324893
671,1663945088056,1.4696985,-0.30801973,0.18523943
672,1663945088056,1.495354,-0.28358585,0.20600824
673,1663945088061,1.5246748,-0.25304347,0.22677705
674,1663945088061,1.5466653,-0.21517095,0.24754585
675,1663945088066,1.5723208,-0.17607673,0.26098448
676,1663945088067,1.595533,-0.13942589,0.2780882
677,1663945088071,1.6187452,-0.10155336,0.29274854
678,1663945088071,1.6407357,-0.0697893,0.29763532
679,1663945088076,1.6553961,-0.046577103,0.3049655
680,1663945088076,1.6724998,-0.028251685,0.30618718
681,1663945088085,1.6883818,-0.023364907,0.30985227
682,1663945088087,1.7054856,-0.019699825,0.31718245
683,1663945088088,1.7213676,-0.019699825,0.32206923
684,1663945088088,1.7372496,-0.030695075,0.326956
685,1663945088091,1.7470231,-0.044133715,0.3281777
686,1663945088091,1.7555751,-0.068567604,0.3306211
687,1663945088096,1.7641269,-0.09300149,0.34161633
688,1663945088096,1.7702353,-0.11987878,0.3440597
689,1663945088100,1.7739004,-0.15286453,0.3501682
690,1663945088100,1.7787873,-0.17729841,0.36238512
691,1663945088106,1.7726787,-0.19440214,0.3660502
692,1663945088106,1.7800089,-0.2041757,0.38315395
693,1663945088111,1.783674,-0.19806722,0.3929275
694,1663945088111,1.7800089,-0.16385978,0.3953709
695,1663945088115,1.7910042,-0.1137703,0.39903596
696,1663945088116,1.7958909,-0.05390727,0.40270105
697,1663945088121,1.8056645,0.009620844,0.40514445
698,1663945088121,1.8166597,0.07314896,0.41736138
699,1663945088126,1.8239899,0.133012,0.42591324
700,1663945088126,1.8300984,0.18920994,0.4369085
701,1663945088130,1.8288767,0.23807772,0.45279053
702,1663945088130,1.8288767,0.28205872,0.46500748
703,1663945088135,1.8252116,0.31748787,0.48226392
704,1663945088135,1.8203248,0.34680852,0.501811
705,1663945088140,1.8105513,0.36635566,0.51524967
706,1663945088140,1.799556,0.3761292,0.5347968
707,1663945088146,1.7873391,0.3773509,0.54945713
708,1663945088146,1.7751222,0.37002072,0.5592307
709,1663945088150,1.7641269,0.36146885,0.573891
710,1663945088151,1.7531316,0.34192175,0.5824429
711,1663945088155,1.7384713,0.3101577,0.5909947
712,1663945088155,1.7250327,0.27961534,0.60076827
713,1663945088161,1.711594,0.2441862,0.6056551
714,1663945088161,1.6981554,0.19898349,0.61298525
715,1663945088165,1.6883818,0.14767233,0.6227588
716,1663945088165,1.6749432,0.09025268,0.6300889
717,1663945088170,1.6602829,0.023059484,0.6398625
718,1663945088170,1.6431792,-0.04535541,0.64963603
719,1663945088175,1.6334056,-0.11865708,0.6581879
720,1663945088175,1.6211886,-0.19318044,0.6691832
721,1663945088181,1.6053066,-0.26159534,0.6728483
722,1663945088181,1.5894246,-0.3324536,0.67406994
723,1663945088190,1.5784293,-0.40575528,0.6801784
724,1663945088190,1.5662124,-0.4729485,0.6814001
725,1663945088190,1.5527737,-0.5352549,0.6801784
726,1663945088190,1.5405568,-0.59145284,0.68628687
727,1663945088195,1.5234531,-0.64398575,0.68628687
728,1663945088195,1.507571,-0.6879667,0.6923954
729,1663945088199,1.4941324,-0.73072606,0.7009472
730,1663945088200,1.4782504,-0.7661552,0.7033906
731,1663945088205,1.4648117,-0.7893674,0.7082774
732,1663945088205,1.4550382,-0.7979192,0.7156076
733,1663945088210,1.4440429,-0.78814566,0.72171605
734,1663945088211,1.4342693,-0.76859856,0.7327113
735,1663945088214,1.4281609,-0.742943,0.7461499
736,1663945088215,1.4244958,-0.72461754,0.7583669
737,1663945088220,1.4232742,-0.70629215,0.7669187
738,1663945088220,1.4208307,-0.6843016,0.76936215
739,1663945088225,1.4232742,-0.6647545,0.76936215
740,1663945088225,1.431826,-0.6415423,0.7632536
741,1663945088229,1.4428213,-0.6244386,0.7534801
742,1663945088230,1.4574815,-0.6073349,0.74492824
743,1663945088234,1.4696985,-0.59389627,0.7351547
744,1663945088234,1.4843588,-0.5853444,0.7266028
745,1663945088239,1.4990191,-0.5951179,0.72049433
746,1663945088239,1.5100144,-0.6036698,0.7046123
747,1663945088245,1.519788,-0.61588675,0.6875086
748,1663945088245,1.5234531,-0.626882,0.6655181
749,1663945088250,1.5295615,-0.6452074,0.6423059
750,1663945088250,1.53567,-0.66353285,0.6190937
751,1663945088253,1.53567,-0.6916318,0.5971032
752,1663945088254,1.5307832,-0.7075138,0.56900424
753,1663945088259,1.5234531,-0.7172874,0.54212695
754,1663945088259,1.5136795,-0.72095245,0.51524967
755,1663945088264,1.4965758,-0.7172874,0.4847073
756,1663945088264,1.475807,-0.7075138,0.45645562
757,1663945088269,1.4489297,-0.68185824,0.42591324
758,1663945088269,1.4269392,-0.6500942,0.3965926
759,1663945088274,1.39151,-0.60855657,0.36360684
760,1663945088274,1.3585243,-0.55724543,0.3306211
761,1663945088279,1.3255385,-0.5010475,0.29885703
762,1663945088279,1.2925528,-0.4460712,0.26831466
763,1663945088284,1.2559019,-0.38742986,0.23899399
764,1663945088284,1.2265813,-0.3361187,0.20967332
765,1663945088289,1.1935955,-0.2921377,0.18401773
766,1663945088289,1.1679399,-0.25793025,0.15958385
767,1663945088293,1.1386193,-0.22738789,0.13026318
768,1663945088293,1.1092986,-0.21028417,0.107050985
769,1663945088298,1.0873082,-0.20295401,0.08628218
770,1663945088299,1.0616525,-0.20173231,0.069178455
771,1663945088304,1.039662,-0.2053974,0.048409645
772,1663945088304,1.0152282,-0.22005773,0.026419144
773,1663945088308,0.99445933,-0.24693501,0.004428643
774,1663945088308,0.9663604,-0.2713689,-0.0151184695
775,1663945088314,0.94559157,-0.29824618,-0.029778805
776,1663945088314,0.9162709,-0.32145837,-0.049325917
777,1663945088320,0.8930587,-0.33734038,-0.07009472
778,1663945088320,0.863738,-0.34589225,-0.08719844
779,1663945088324,0.8283089,-0.35200074,-0.109188944
780,1663945088324,0.8014316,-0.3581092,-0.12507097
781,1663945088329,0.7745543,-0.35688752,-0.13117945
782,1663945088329,0.74401194,-0.35444412,-0.14828317
783,1663945088333,0.7122479,-0.35444412,-0.15316994
784,1663945088334,0.68292725,-0.34344888,-0.15805672
785,1663945088338,0.65604997,-0.34100547,-0.16660859
786,1663945088338,0.6255076,-0.33734038,-0.16905198
787,1663945088343,0.59374356,-0.33367532,-0.17760384
788,1663945088343,0.5668663,-0.33001024,-0.18126893
789,1663945088350,0.539989,-0.32390177,-0.18004723
790,1663945088350,0.5155551,-0.32023668,-0.1861557
791,1663945088353,0.48989952,-0.3153499,-0.18371232
792,1663945088353,0.4654656,-0.3141282,-0.18371232
793,1663945088358,0.44103172,-0.3153499,-0.1873774
794,1663945088359,0.41904122,-0.3141282,-0.1873774
795,1663945088363,0.3970507,-0.3153499,-0.1861557
796,1663945088363,0.3738385,-0.3129065,-0.1885991
797,1663945088368,0.34573954,-0.3141282,-0.18982078
798,1663945088368,0.3164189,-0.3165716,-0.19592926
799,1663945088373,0.28465483,-0.31901497,-0.20325942
800,1663945088373,0.26022094,-0.32634515,-0.20081604
801,1663945088378,0.22967857,-0.33123192,-0.21303298
802,1663945088378,0.19669282,-0.33734038,-0.21669807
803,1663945088383,0.16737215,-0.3422272,-0.21791977
804,1663945088384,0.13560809,-0.34833565,-0.22402823
805,1663945088392,0.070858285,-0.35688752,-0.228915
806,1663945088421,0.04031592,-0.36299598,-0.2313584
807,1663945088421,0.0061084726,-0.3605526,-0.22647162
808,1663945088421,-0.0219905,-0.3617743,-0.22402823
809,1663945088421,-0.05619795,-0.3605526,-0.22158484
810,1663945088421,-0.08185353,-0.36299598,-0.21303298
811,1663945088421,-0.11728267,-0.3617743,-0.2093679
812,1663945088421,-0.14415996,-0.3617743,-0.20203774
813,1663945088421,-0.17225893,-0.3581092,-0.19104248
814,1663945088422,-0.21257484,-0.35322243,-0.19226417
815,1663945088422,-0.23945212,-0.34833565,-0.18004723
816,1663945088422,-0.2699945,-0.34100547,-0.17271706
817,1663945088422,-0.29809347,-0.3361187,-0.17027368
818,1663945088424,-0.32374904,-0.32756683,-0.15561333
819,1663945088424,-0.34940463,-0.32145837,-0.15194826
820,1663945088427,-0.379947,-0.30801973,-0.14583978
821,1663945088427,-0.3970507,-0.29580277,-0.13240114
822,1663945088432,-0.42148462,-0.28480753,-0.13240114
823,1663945088432,-0.43736663,-0.27259058,-0.12140589
824,1663945088437,-0.45691374,-0.25793025,-0.11407573
825,1663945088437,-0.4666873,-0.24326992,-0.109188944
826,1663945088442,-0.48134765,-0.23471805,-0.09941539
827,1663945088442,-0.4874561,-0.21761434,-0.09086353
828,1663945088447,-0.49722967,-0.20906247,-0.08231167
829,1663945088447,-0.5008947,-0.19562383,-0.07009472
830,1663945088451,-0.5082249,-0.18218519,-0.062764555
831,1663945088452,-0.51799846,-0.16874656,-0.05054761
832,1663945088457,-0.5155551,-0.158973,-0.035887275
833,1663945088457,-0.52288526,-0.15042114,-0.02611372
834,1663945088461,-0.52655035,-0.14064758,-0.0151184695
835,1663945088462,-0.5314371,-0.13331741,-0.0053449133
836,1663945088466,-0.5363239,-0.12720895,0.004428643
837,1663945088467,-0.5289937,-0.12598725,0.016645588
838,1663945088472,-0.53021544,-0.12354386,0.033749312
839,1663945088473,-0.5289937,-0.12598725,0.045966256
840,1663945088476,-0.51799846,-0.13209572,0.06795676
841,1663945088476,-0.50578153,-0.15042114,0.09239065
842,1663945088482,-0.50333816,-0.1565296,0.11193776
843,1663945088482,-0.49722967,-0.13942589,0.12171131
844,1663945088486,-0.5008947,-0.114992,0.11560284
845,1663945088486,-0.5008947,-0.10766183,0.11071607
846,1663945088492,-0.5008947,-0.10155336,0.113159455
847,1663945088492,-0.5045598,-0.10277505,0.11438115
848,1663945088496,-0.50578153,-0.10888352,0.1241547
849,1663945088496,-0.50578153,-0.11987878,0.13270657
850,1663945088501,-0.50700325,-0.12965234,0.14003673
851,1663945088502,-0.5045598,-0.14309096,0.15225367
852,1663945088506,-0.5008947,-0.15286453,0.16324893
853,1663945088506,-0.50211644,-0.16752486,0.17180079
854,1663945088511,-0.49722967,-0.17852011,0.18646112
855,1663945088512,-0.49722967,-0.19073705,0.1937913
856,1663945088516,-0.4911212,-0.19928892,0.20234315
857,1663945088516,-0.48379102,-0.21517095,0.2157818
858,1663945088521,-0.48379102,-0.23227467,0.22311196
859,1663945088521,-0.48134765,-0.26037365,0.23532891
860,1663945088526,-0.47523916,-0.290916,0.24632415
861,1663945088526,-0.47035238,-0.32512346,0.25487602
862,1663945088531,-0.4666873,-0.36421767,0.26587126
863,1663945088531,-0.4666873,-0.4033119,0.27075803
864,1663945088536,-0.46180052,-0.44240612,0.27686653
865,1663945088536,-0.46180052,-0.47417018,0.2817533
866,1663945088541,-0.45080528,-0.50349087,0.2854184
867,1663945088541,-0.44103172,-0.5279247,0.28419667
868,1663945088546,-0.43247986,-0.5523586,0.28786176
869,1663945088546,-0.40926766,-0.57434916,0.2854184
870,1663945088551,-0.39216393,-0.598783,0.2854184
871,1663945088551,-0.37261683,-0.61710846,0.28908345
872,1663945088555,-0.35306972,-0.6342122,0.28664008
873,1663945088556,-0.3323009,-0.6500942,0.2854184
874,1663945088561,-0.30786702,-0.65864605,0.28419667
875,1663945088562,-0.28343314,-0.6525376,0.2793099
876,1663945088566,-0.25533417,-0.63909894,0.27320144
877,1663945088567,-0.2223484,-0.62077355,0.26098448
878,1663945088571,-0.18569757,-0.59267455,0.25121093
879,1663945088571,-0.13805148,-0.55724543,0.24388076
880,1663945088576,-0.09529217,-0.5132644,0.22922044
881,1663945088576,-0.046424393,-0.4705051,0.22066857
882,1663945088582,0.002443389,-0.422859,0.22066857
883,1663945088586,0.0452027,-0.3837648,0.2157818
884,1663945088586,0.08429692,-0.35077903,0.22677705
885,1663945088586,0.114839286,-0.32268006,0.23899399
886,1663945088591,0.1331647,-0.30191126,0.25243264
887,1663945088591,0.131943,-0.27992076,0.27075803
888,1663945088595,0.12949961,-0.2677038,0.29152685
889,1663945088595,0.11728267,-0.25426516,0.31840414
890,1663945088600,0.08674031,-0.24571331,0.3440597
891,1663945088600,0.052532863,-0.24082653,0.36482853
892,1663945088605,0.007330167,-0.24449162,0.38804072
893,1663945088605,-0.03787253,-0.2481567,0.40758783
894,1663945088610,-0.08063184,-0.25915194,0.42469156
895,1663945088612,-0.131943,-0.26892552,0.4381302
896,1663945088615,-0.1795891,-0.28114244,0.44668207
897,1663945088615,-0.22601348,-0.2896943,0.44912544
898,1663945088620,-0.26266432,-0.30313295,0.45401222
899,1663945088620,-0.28831992,-0.3153499,0.4613424
900,1663945088625,-0.31886226,-0.33123192,0.458899
901,1663945088625,-0.3310792,-0.35688752,0.4576773
902,1663945088631,-0.3384094,-0.40575528,0.44790375
903,1663945088631,-0.3310792,-0.47661358,0.4344651
904,1663945088635,-0.32619244,-0.51815116,0.41003123
905,1663945088635,-0.30053684,-0.5474719,0.38559732
906,1663945088640,-0.27610296,-0.5621322,0.3501682
907,1663945088641,-0.2455606,-0.5792359,0.31718245
908,1663945088645,-0.21135315,-0.5804576,0.28053162
909,1663945088646,-0.1771457,-0.5706841,0.24388076
910,1663945088650,-0.14049487,-0.554802,0.20967332
911,1663945088650,-0.105065726,-0.5376983,0.17057909
912,1663945088655,-0.06963659,-0.5242597,0.13392825
913,1663945088655,-0.042759307,-0.5120427,0.09361234
914,1663945088660,-0.009773556,-0.49738237,0.0581832
915,1663945088661,0.014660334,-0.47905695,0.021532366
916,1663945088665,0.035429142,-0.46073154,-0.0151184695
917,1663945088666,0.057419643,-0.43141088,-0.049325917
918,1663945088670,0.07941014,-0.39720342,-0.078646585
919,1663945088670,0.09651387,-0.3581092,-0.11285403
920,1663945088674,0.1123959,-0.31901497,-0.14339639
921,1663945088674,0.12827793,-0.27747735,-0.1653869
922,1663945088679,0.14049487,-0.23716144,-0.18982078
923,1663945088680,0.14904673,-0.2005106,-0.20203774
924,1663945088684,0.14782503,-0.17363334,-0.21303298
925,1663945088684,0.123391144,-0.1565296,-0.2301367
926,1663945088691,0.09773556,-0.1369825,-0.23868857
927,1663945088691,0.06474981,-0.122322164,-0.24357535
928,1663945088695,0.020768806,-0.10155336,-0.2545706
929,1663945088695,-0.029320668,-0.068567604,-0.25701398
930,1663945088700,-0.08551861,-0.029473381,-0.25945738
931,1663945088700,-0.14782503,0.016951011,-0.26923093
932,1663945088705,-0.21623993,0.06826218,-0.26556584
933,1663945088705,-0.2895416,0.11224318,-0.27045262
934,1663945088709,-0.37261683,0.16477604,-0.27045262
935,1663945088709,-0.45202696,0.20997874,-0.26923093
936,1663945088715,-0.5289937,0.25518143,-0.26923093
937,1663945088715,-0.61084723,0.29549736,-0.26556584
938,1663945088719,-0.6841489,0.32726142,-0.25945738
939,1663945088720,-0.74889874,0.3578038,-0.25701398
940,1663945088723,-0.8050967,0.37979427,-0.2521272
941,1663945088724,-0.8441909,0.3932329,-0.2509055
942,1663945088728,-0.8698465,0.39445463,-0.2533489
943,1663945088728,-0.87839836,0.38223767,-0.2509055
944,1663945088734,-0.8710682,0.36024716,-0.2582357
945,1663945088734,-0.85396445,0.32359633,-0.26312247
946,1663945088738,-0.8209787,0.2881672,-0.26312247
947,1663945088738,-0.775776,0.24662958,-0.26312247
948,1663945088743,-0.72079974,0.20631365,-0.25701398
949,1663945088743,-0.65971506,0.16721943,-0.2521272
950,1663945088748,-0.59252185,0.13912046,-0.24479704
951,1663945088748,-0.52532864,0.14034216,-0.23868857
952,1663945088753,-0.46180052,0.15133741,-0.23624517
953,1663945088753,-0.4031592,0.17332791,-0.22524993
954,1663945088758,-0.35062632,0.220974,-0.21547636
955,1663945088758,-0.30175856,0.28205872,-0.20448112
956,1663945088763,-0.25899923,0.34803024,-0.19104248
957,1663945088763,-0.22723518,0.4164451,-0.18371232
958,1663945088768,-0.19058435,0.47997323,-0.16905198
959,1663945088768,-0.16126367,0.54472303,-0.16294351
960,1663945088773,-0.12949961,0.60458606,-0.15439165
961,1663945088773,-0.10262234,0.6620057,-0.15072656
962,1663945088778,-0.07818845,0.7145386,-0.14950487
963,1663945088778,-0.042759307,0.7621847,-0.13850962
964,1663945088783,-0.0219905,0.8134958,-0.13850962
965,1663945088783,-0.0061084726,0.8525901,-0.13850962
966,1663945088787,0.002443389,0.8904626,-0.12140589
967,1663945088787,-0.007330167,0.9234483,-0.11163234
968,1663945088793,-0.03298575,0.9552124,-0.096972
969,1663945088793,-0.06963659,0.98331136,-0.078646585
970,1663945088798,-0.120947756,1.0077453,-0.06642964
971,1663945088798,-0.19791451,1.0211838,-0.05054761
972,1663945088802,-0.28343314,1.0101887,-0.040774055
973,1663945088803,-0.38605547,0.98819816,-0.033443887
974,1663945088807,-0.49600798,0.94055206,-0.027335415
975,1663945088807,-0.6071822,0.8843541,-0.035887275
976,1663945088812,-0.72202146,0.80738735,-0.048104223
977,1663945088813,-0.82342213,0.7108735,-0.062764555
978,1663945088818,-0.92360103,0.60702944,-0.08842014
979,1663945088818,-1.0164498,0.49219018,-0.1201842
980,1663945088822,-1.09586,0.37124243,-0.15316994
981,1663945088822,-1.1691617,0.24907297,-0.1873774
982,1663945088827,-1.2290246,0.1293469,-0.22036316
983,1663945088827,-1.2791141,0.016951011,-0.24846213
984,1663945088833,-1.3194301,-0.0917798,-0.26923093
985,1663945088833,-1.3499725,-0.18707198,-0.28022617
986,1663945088838,-1.3695196,-0.2713689,-0.2777828
987,1663945088838,-1.375628,-0.3422272,-0.26800925
988,1663945088842,-1.3707412,-0.39476004,-0.24479704
989,1663945088842,-1.3560809,-0.43141088,-0.21181129
990,1663945088847,-1.3414205,-0.4485146,-0.17516045
991,1663945088847,-1.3182083,-0.4485146,-0.13117945
992,1663945088852,-1.2986612,-0.4265241,-0.08231167
993,1663945088852,-1.2852226,-0.3837648,-0.033443887
994,1663945088857,-1.2730057,-0.31779328,0.020310672
995,1663945088857,-1.2620105,-0.23227467,0.07773031
996,1663945088862,-1.2534586,-0.1369825,0.13026318
997,1663945088862,-1.2522368,-0.035581853,0.18768282
998,1663945088867,-1.2461284,0.06826218,0.24143738
999,1663945088867,-1.2412416,0.17210622,0.29641363
1000,1663945088872,-1.2326897,0.28205872,0.3477248
1001,1663945088872,-1.2241379,0.3932329,0.3929275
1002,1663945088877,-1.2168077,0.50196373,0.43080002
1003,1663945088877,-1.199704,0.6033644,0.46500748
1004,1663945088882,-1.1874871,0.7035433,0.49203748
1005,1663945088882,-1.1752701,0.8012789,0.51402795
1006,1663945088887,-1.1606098,0.89412767,0.52990997
1007,1663945088887,-1.143506,0.97598124,0.5360185
1008,1663945088900,-1.127624,1.052948,0.53724015
1009,1663945088900,-1.1141855,1.1262497,0.5286883
1010,1663945088900,-1.09586,1.1897777,0.5128063
1011,1663945088900,-1.0763129,1.2398672,0.49081576
1012,1663945088901,-1.0567658,1.2765181,0.46256408
1013,1663945088901,-1.0347753,1.3095038,0.42713493
1014,1663945088906,-1.0103414,1.3278292,0.38804072
1015,1663945088906,-0.9846858,1.3437113,0.34528142
1016,1663945088911,-0.9578085,1.3461547,0.3025221
1017,1663945088911,-0.9321529,1.3424896,0.25487602
1018,1663945088917,-0.9113841,1.3290509,0.20234315
1019,1663945088917,-0.8930587,1.3021736,0.1485886
1020,1663945088921,-0.8612946,1.2862916,0.09849912
1021,1663945088921,-0.8295306,1.2716312,0.045966256
1022,1663945088926,-0.79287976,1.2545276,0.003206948
1023,1663945088926,-0.7660025,1.2300937,-0.038330667
1024,1663945088931,-0.731795,1.1995513,-0.07742489
1025,1663945088931,-0.70613945,1.1616788,-0.106745556
1026,1663945088936,-0.67437536,1.1250279,-0.12995775
1027,1663945088936,-0.643833,1.0749384,-0.15072656
1028,1663945088941,-0.6255076,1.0309575,-0.17027368
1029,1663945088941,-0.6035171,0.9698727,-0.1861557
1030,1663945088946,-0.5900785,0.92467004,-0.19592926
1031,1663945088946,-0.57053137,0.89657104,-0.20448112
1032,1663945088951,-0.5509842,0.8660287,-0.2093679
1033,1663945088951,-0.53388053,0.8330429,-0.2093679
1034,1663945088956,-0.52166355,0.8000572,-0.2093679
1035,1663945088956,-0.51189,0.76951486,-0.2081462
1036,1663945088961,-0.5131117,0.7243121,-0.20325942
1037,1663945088961,-0.5094466,0.69499147,-0.19959435
1038,1663945088966,-0.50700325,0.676666,-0.1885991
1039,1663945088967,-0.5045598,0.6644491,-0.17882554
1040,1663945088971,-0.5082249,0.65467554,-0.16783029
1041,1663945088971,-0.51066834,0.64734536,-0.15805672
1042,1663945088976,-0.51433337,0.63024163,-0.15072656
1043,1663945088976,-0.53388053,0.61313796,-0.13973132
1044,1663945088981,-0.53388053,0.5972559,-0.13484453
1045,1663945088981,-0.539989,0.5777088,-0.12873606
1046,1663945088986,-0.55342764,0.5557183,-0.12140589
1047,1663945088986,-0.5632012,0.528841,-0.1201842
1048,1663945088990,-0.56930965,0.50196373,-0.116519116
1049,1663945088991,-0.5778615,0.48486,-0.11407573
1050,1663945088996,-0.5803049,0.468978,-0.109188944
1051,1663945088996,-0.5790832,0.4445441,-0.10552386
1052,1663945089002,-0.5864134,0.41766682,-0.10552386
1053,1663945089002,-0.59130013,0.38345936,-0.10552386
1054,1663945089005,-0.59618694,0.35291702,-0.10552386
1055,1663945089005,-0.599852,0.32115296,-0.10430217
1056,1663945089010,-0.6022954,0.29183227,-0.106745556
1057,1663945089010,-0.6059605,0.25884652,-0.106745556
1058,1663945089015,-0.6071822,0.23196925,-0.10796725
1059,1663945089015,-0.61084723,0.20875706,-0.10552386
1060,1663945089020,-0.61206895,0.18676655,-0.106745556
1061,1663945089020,-0.6181774,0.16477604,-0.10430217
1062,1663945089025,-0.61939913,0.14645062,-0.10185878
1063,1663945089025,-0.6267293,0.11102149,-0.10185878
1064,1663945089030,-0.63528115,0.09025268,-0.096972
1065,1663945089030,-0.6328378,0.093917765,-0.08597675
1066,1663945089036,-0.6328378,0.10613471,-0.07375981
1067,1663945089036,-0.63528115,0.12079505,-0.06520794
1068,1663945089040,-0.6303944,0.1281252,-0.048104223
1069,1663945089040,-0.6328378,0.133012,-0.040774055
1070,1663945089045,-0.6340594,0.14156385,-0.032222193
1071,1663945089045,-0.63161606,0.14889401,-0.017561859
1072,1663945089051,-0.64016795,0.1537808,-0.0151184695
1073,1663945089051,-0.6413896,0.16111097,-0.0077883024
1074,1663945089056,-0.6450547,0.16477604,-0.00167983
1075,1663945089056,-0.6487198,0.17210622,0.0007635591
1076,1663945089060,-0.65116316,0.1757713,0.0056503373
1077,1663945089061,-0.65971506,0.15622419,0.0007635591
1078,1663945089065,-0.66704524,0.15133741,-0.009009997
1079,1663945089066,-0.6621584,0.16844113,-0.011453386
1080,1663945089071,-0.6646018,0.18310146,-0.018783553
1081,1663945089071,-0.6658235,0.1977618,-0.024892027
1082,1663945089075,-0.6658235,0.20509197,-0.035887275
1083,1663945089075,-0.6609367,0.20631365,-0.044439137
1084,1663945089081,-0.6646018,0.20142688,-0.055434387
1085,1663945089081,-0.66338015,0.19531842,-0.07131642
1086,1663945089085,-0.65849334,0.18798824,-0.08353336
1087,1663945089086,-0.65849334,0.18432316,-0.100637086
1088,1663945089090,-0.65116316,0.176993,-0.116519116
1089,1663945089090,-0.6487198,0.16844113,-0.13240114
1090,1663945089095,-0.64016795,0.16599774,-0.14583978
1091,1663945089095,-0.6426113,0.15744588,-0.17149536
1092,1663945089101,-0.6255076,0.14767233,-0.17638214
1093,1663945089101,-0.6255076,0.11468657,-0.19592926
1094,1663945089105,-0.61695576,0.109799795,-0.21181129
1095,1663945089105,-0.6010737,0.12079505,-0.21669807
1096,1663945089110,-0.5803049,0.13667707,-0.22769332
1097,1663945089110,-0.5619795,0.15500249,-0.23380178
1098,1663945089114,-0.54609746,0.17332791,-0.24357535
1099,1663945089115,-0.52655035,0.17821468,-0.2533489
1100,1663945089119,-0.5045598,0.18432316,-0.2582357
1101,1663945089120,-0.48256934,0.18310146,-0.26312247
1102,1663945089125,-0.4666873,0.18676655,-0.27045262
1103,1663945089125,-0.44836187,0.19043164,-0.2753394
1104,1663945089129,-0.42759308,0.19409671,-0.2777828
1105,1663945089130,-0.41171107,0.20020519,-0.28266957
1106,1663945089134,-0.39582902,0.19898349,-0.28755635
1107,1663945089135,-0.3787253,0.20509197,-0.2948865
1108,1663945089139,-0.36895174,0.20631365,-0.30710346
1109,1663945089140,-0.3555131,0.21242213,-0.30466008
1110,1663945089144,-0.34085277,0.21364383,-0.30221668
1111,1663945089144,-0.3310792,0.21242213,-0.2985516
1112,1663945089149,-0.31764057,0.21608722,-0.29122144
1113,1663945089149,-0.31397548,0.21608722,-0.2997733
1114,1663945089154,-0.30542362,0.22830416,-0.30588177
1115,1663945089155,-0.30298024,0.24785128,-0.30832514
1116,1663945089159,-0.30053684,0.25640315,-0.31076854
1117,1663945089159,-0.29931515,0.25273806,-0.30588177
1118,1663945089163,-0.29198498,0.23807772,-0.2997733
1119,1663945089164,-0.2907633,0.20997874,-0.2973299
1120,1663945089169,-0.2870982,0.17943639,-0.29610822
1121,1663945089170,-0.28465483,0.15744588,-0.30710346
1122,1663945089174,-0.28465483,0.15011571,-0.3242072
1123,1663945089174,-0.27610296,0.15988927,-0.33520243
1124,1663945089180,-0.2675511,0.176993,-0.3461977
1125,1663945089180,-0.26266432,0.20020519,-0.35719293
1126,1663945089185,-0.25777754,0.21853061,-0.35841462
1127,1663945089185,-0.25655586,0.22586077,-0.35230616
1128,1663945089193,-0.25533417,0.22830416,-0.34497598
1129,1663945089194,-0.25533417,0.22463907,-0.33275905
1130,1663945089203,-0.26510772,0.22219568,-0.32787228
1131,1663945089203,-0.2675511,0.22463907,-0.31443363
1132,1663945089203,-0.2663294,0.23319094,-0.30343837
1133,1663945089203,-0.2736596,0.2417428,-0.2985516
1134,1663945089204,-0.27121618,0.25151637,-0.28755635
1135,1663945089204,-0.27610296,0.25884652,-0.28389126
1136,1663945089208,-0.28098974,0.26862007,-0.27900448
1137,1663945089208,-0.28465483,0.27961534,-0.2716743
1138,1663945089214,-0.2858765,0.2832804,-0.26556584
1139,1663945089214,-0.2895416,0.2857238,-0.2582357
1140,1663945089219,-0.28831992,0.29427567,-0.24479704
1141,1663945089220,-0.2858765,0.30038413,-0.23624517
1142,1663945089223,-0.28343314,0.308936,-0.22647162
1143,1663945089223,-0.28221142,0.32237464,-0.21791977
1144,1663945089228,-0.28343314,0.33703497,-0.21669807
1145,1663945089228,-0.28098974,0.3553604,-0.21547636
1146,1663945089233,-0.27610296,0.3749075,-0.21547636
1147,1663945089233,-0.2736596,0.41522342,-0.22769332
1148,1663945089238,-0.2675511,0.4640912,-0.24968381
1149,1663945089238,-0.263886,0.512959,-0.26800925
1150,1663945089243,-0.25533417,0.54594475,-0.28022617
1151,1663945089243,-0.24922568,0.5520532,-0.28511295
1152,1663945089247,-0.2443389,0.54960984,-0.28511295
1153,1663945089247,-0.23090026,0.5557183,-0.2936648
1154,1663945089253,-0.2211267,0.56915694,-0.30954686
1155,1663945089253,-0.20890976,0.5862607,-0.3205421
1156,1663945089259,-0.19302773,0.5960342,-0.33031565
1157,1663945089259,-0.18691926,0.58992577,-0.33398074
1158,1663945089262,-0.18203248,0.5716003,-0.33642414
1159,1663945089262,-0.18203248,0.5483881,-0.33398074
1160,1663945089268,-0.1783674,0.5251759,-0.33275905
1161,1663945089268,-0.17348062,0.5092939,-0.33031565
1162,1663945089273,-0.1795891,0.50196373,-0.33764583
1163,1663945089273,-0.18325418,0.49463356,-0.34986275
1164,1663945089277,-0.18447587,0.48974678,-0.34986275
1165,1663945089278,-0.18447587,0.48974678,-0.35597125
1166,1663945089283,-0.18569757,0.48974678,-0.3645231
1167,1663945089283,-0.1795891,0.49707696,-0.3620797
1168,1663945089287,-0.16370706,0.50318545,-0.3669665
1169,1663945089288,-0.15882029,0.5105156,-0.37674004
1170,1663945089293,-0.1575986,0.512959,-0.39995223
1171,1663945089293,-0.1563769,0.5092939,-0.4146126
1172,1663945089297,-0.16004199,0.5202891,-0.42682952
1173,1663945089297,-0.1575986,0.5312844,-0.43904647
1174,1663945089302,-0.16126367,0.53739285,-0.43904647
1175,1663945089302,-0.15393351,0.5361712,-0.4378248
1176,1663945089307,-0.15149012,0.5386146,-0.4341597
1177,1663945089307,-0.14538164,0.5349495,-0.42560783
1178,1663945089313,-0.14415996,0.5361712,-0.42072105
1179,1663945089313,-0.13560809,0.54472303,-0.41339087
1180,1663945089317,-0.131943,0.5593834,-0.4085041
1181,1663945089317,-0.12827793,0.5825956,-0.4085041
1182,1663945089322,-0.12583454,0.60458606,-0.4097258
1183,1663945089323,-0.12461284,0.62413317,-0.4109475
1184,1663945089326,-0.12461284,0.6339067,-0.41339087
1185,1663945089327,-0.12461284,0.63512844,-0.4072824
1186,1663945089332,-0.12583454,0.6339067,-0.4072824
1187,1663945089332,-0.13072132,0.63635015,-0.41705596
1188,1663945089337,-0.123391144,0.63635015,-0.4097258
1189,1663945089337,-0.1331647,0.64734536,-0.42560783
1190,1663945089342,-0.131943,0.6497888,-0.42560783
1191,1663945089342,-0.12705623,0.6387935,-0.41949937
1192,1663945089346,-0.131943,0.6216898,-0.42438614
1193,1663945089347,-0.13805148,0.5984776,-0.42194274
1194,1663945089352,-0.14049487,0.57282203,-0.41339087
1195,1663945089352,-0.14660335,0.5483881,-0.41339087
1196,1663945089357,-0.14782503,0.52639765,-0.40361732
1197,1663945089357,-0.15271181,0.512959,-0.39506546
1198,1663945089362,-0.15271181,0.49952033,-0.3865136
1199,1663945089362,-0.14782503,0.49585527,-0.36818817
1200,1663945089366,-0.14538164,0.48608172,-0.35108447
1201,1663945089367,-0.13927318,0.47264308,-0.33275905
1202,1663945089371,-0.12461284,0.4677563,-0.30954686
1203,1663945089371,-0.114839286,0.45920444,-0.2973299
1204,1663945089376,-0.09773556,0.45431766,-0.28877804
1205,1663945089376,-0.07818845,0.45309594,-0.26800925
1206,1663945089381,-0.06230642,0.4421007,-0.25945738
1207,1663945089381,-0.047646087,0.42988375,-0.24113196
1208,1663945089386,-0.02687728,0.41033664,-0.21547636
1209,1663945089387,-0.018325418,0.38468108,-0.20081604
1210,1663945089392,-0.012216945,0.33703497,-0.15561333
1211,1663945089419,-0.0061084726,0.31382278,-0.13606623
1212,1663945089419,-0.007330167,0.29916245,-0.118962504
1213,1663945089419,0.0061084726,0.29427567,-0.109188944
1214,1663945089419,0.025655584,0.2869455,-0.10185878
1215,1663945089419,0.05619795,0.27961534,-0.0981937
1216,1663945089419,0.09162709,0.27106348,-0.10185878
1217,1663945089419,0.12216945,0.25762483,-0.11163234
1218,1663945089419,0.16248538,0.25395975,-0.11285403
1219,1663945089419,0.20280129,0.24907297,-0.11774081
1220,1663945089420,0.24311721,0.2405211,-0.122627586
1221,1663945089420,0.2858765,0.22708246,-0.122627586
1222,1663945089421,0.32497075,0.21364383,-0.12507097
1223,1663945089426,0.3579565,0.20142688,-0.12995775
1224,1663945089426,0.39460734,0.18432316,-0.12873606
1225,1663945089432,0.4263714,0.15133741,-0.13484453
1226,1663945089432,0.4459185,0.11712996,-0.1421747
1227,1663945089435,0.4654656,0.08414421,-0.1446181
1228,1663945089436,0.4886778,0.045049984,-0.1446181
1229,1663945089440,0.5131117,0.005955761,-0.140953
1230,1663945089440,0.5363239,-0.029473381,-0.13850962
1231,1663945089445,0.56564456,-0.072232686,-0.12995775
1232,1663945089445,0.5974086,-0.10277505,-0.12384928
1233,1663945089450,0.6230642,-0.12965234,-0.11529742
1234,1663945089451,0.6609367,-0.15042114,-0.10796725
1235,1663945089456,0.70980453,-0.17118995,-0.094528615
1236,1663945089456,0.75012046,-0.18340689,-0.084755056
1237,1663945089463,0.7941014,-0.18829367,-0.07131642
1238,1663945089464,0.8466343,-0.18462859,-0.05787778
1239,1663945089468,0.90038884,-0.19684553,-0.05054761
1240,1663945089468,0.9553651,-0.2041757,-0.040774055
1241,1663945089470,1.0201149,-0.22738789,-0.029778805
1242,1663945089471,1.0726478,-0.24449162,-0.021226943
1243,1663945089475,1.1312891,-0.27503398,-0.01267508
1244,1663945089475,1.1813786,-0.3165716,0.0019852535
1245,1663945089480,1.2302464,-0.3617743,0.014202199
1246,1663945089480,1.2766708,-0.42163733,0.026419144
1247,1663945089485,1.3206518,-0.48394373,0.04352287
1248,1663945089485,1.3634111,-0.54869354,0.056961507
1249,1663945089490,1.4061704,-0.61955184,0.07650862
1250,1663945089490,1.447708,-0.6879667,0.09239065
1251,1663945089495,1.4904673,-0.7600467,0.10827268
1252,1663945089495,1.53567,-0.8223531,0.12659809
1253,1663945089500,1.579651,-0.8846595,0.14492351
1254,1663945089500,1.6224103,-0.9359707,0.16324893
1255,1663945089505,1.6627263,-0.97995174,0.18279605
1256,1663945089505,1.7030421,-1.0153809,0.20112146
1257,1663945089510,1.7409147,-1.0434798,0.22066857
1258,1663945089510,1.7763438,-1.0581402,0.2377723
1259,1663945089514,1.815438,-1.0618052,0.2585411
1260,1663945089515,1.8472021,-1.0569185,0.27686653
1261,1663945089520,1.8753011,-1.0459232,0.29763532
1262,1663945089520,1.8985133,-1.0275978,0.3232909
1263,1663945089525,1.9143953,-1.0019422,0.34894648
1264,1663945089526,1.9229472,-0.9689565,0.37704548
1265,1663945089530,1.9192821,-0.93352735,0.40392274
1266,1663945089530,1.9119519,-0.88954633,0.42713493
1267,1663945089535,1.8960699,-0.8516738,0.44912544
1268,1663945089535,1.8753011,-0.80036265,0.47126865
1269,1663945089540,1.855754,-0.7417213,0.49081576
1270,1663945089540,1.8362069,-0.6769715,0.5115846
1271,1663945089545,1.8142164,-0.6048915,0.5286883
1272,1663945089545,1.8007777,-0.5279247,0.5433486
1273,1663945089550,1.7885607,-0.4485146,0.56045234
1274,1663945089550,1.7787873,-0.3593309,0.5763344
1275,1663945089555,1.7702353,-0.26526043,0.5873296
1276,1663945089555,1.7604618,-0.18340689,0.5995466
1277,1663945089560,1.7543533,-0.09544489,0.6142069
1278,1663945089560,1.7433581,-0.012369657,0.63253236
1279,1663945089565,1.7323629,0.0645971,0.6484144
1280,1663945089565,1.7213676,0.1293469,0.6642964
1281,1663945089570,1.7030421,0.18798824,0.68262184
1282,1663945089570,1.683495,0.23196925,0.69850385
1283,1663945089574,1.6639479,0.25395975,0.71438587
1284,1663945089574,1.6321839,0.25762483,0.7302679
1285,1663945089579,1.6065283,0.25029466,0.7461499
1286,1663945089579,1.5735426,0.23319094,0.76081026
1287,1663945089586,1.5466653,0.20387027,0.78035736
1288,1663945089586,1.5185663,0.17210622,0.7974611
1289,1663945089590,1.4880239,0.1317903,0.81212145
1290,1663945089590,1.4550382,0.09269607,0.8328902
1291,1663945089594,1.4220524,0.052380152,0.85121566
1292,1663945089595,1.3890667,0.0035123718,0.87076277
1293,1663945089599,1.3511941,-0.04535541,0.8878665
1294,1663945089599,1.3108783,-0.100331664,0.89886177
1295,1663945089604,1.2766708,-0.1565296,0.9147438
1296,1663945089604,1.2375766,-0.21272756,0.92207396
1297,1663945089609,1.2082559,-0.2701472,0.9269607
1298,1663945089609,1.1826003,-0.33001024,0.9306258
1299,1663945089614,1.1618315,-0.38987327,0.9269607
1300,1663945089614,1.1496146,-0.45828816,0.92451733
1301,1663945089619,1.139841,-0.5279247,0.91596544
1302,1663945089620,1.1373976,-0.598783,0.9061919
1303,1663945089624,1.139841,-0.68185824,0.89641833
1304,1663945089624,1.1459495,-0.7612684,0.8915316
1305,1663945089630,1.1606098,-0.8455653,0.8793146
1306,1663945089630,1.1789352,-0.9152019,0.8670977
1307,1663945089633,1.2058125,-0.97873,0.8524374
1308,1663945089633,1.2339115,-1.0410365,0.83166856
1309,1663945089638,1.2693406,-1.1106731,0.8170082
1310,1663945089638,1.3035481,-1.1815313,0.8023479
1311,1663945089644,1.3255385,-1.2658283,0.78524417
1312,1663945089644,1.3524158,-1.3623421,0.7718055
1313,1663945089648,1.3719629,-1.4551909,0.7583669
1314,1663945089649,1.3817365,-1.5394878,0.74004143
1315,1663945089653,1.3927318,-1.6103461,0.7266028
1316,1663945089653,1.3988402,-1.6653223,0.71316415
1317,1663945089658,1.4025053,-1.7093034,0.6997255
1318,1663945089659,1.4025053,-1.7276287,0.6875086
1319,1663945089663,1.403727,-1.7312938,0.67162657
1320,1663945089664,1.3976185,-1.7080816,0.65574455
1321,1663945089668,1.3927318,-1.6750959,0.645971
1322,1663945089668,1.3817365,-1.6323366,0.63253236
1323,1663945089673,1.3707412,-1.574917,0.6227588
1324,1663945089673,1.359746,-1.5162756,0.60809845
1325,1663945089678,1.3426423,-1.4576343,0.58855134
1326,1663945089678,1.327982,-1.4038798,0.56900424
1327,1663945089683,1.3145432,-1.3598987,0.5445703
1328,1663945089683,1.287666,-1.3171394,0.5091412
1329,1663945089695,1.2705623,-1.286597,0.48226392
1330,1663945089695,1.2571237,-1.2694933,0.44912544
1331,1663945089695,1.2424634,-1.2609415,0.4161397
1332,1663945089695,1.2326897,-1.254833,0.3892624
1333,1663945089698,1.2253596,-1.2487245,0.35749835
1334,1663945089698,1.2168077,-1.2365075,0.3306211
1335,1663945089703,1.2106993,-1.2194039,0.3086306
1336,1663945089703,1.2021474,-1.2010784,0.28786176
1337,1663945089708,1.1887088,-1.1803097,0.27075803
1338,1663945089708,1.1826003,-1.1619842,0.2585411
1339,1663945089710,1.1642749,-1.1485455,0.24143738
1340,1663945089715,1.1483928,-1.1326635,0.23044212
1341,1663945089716,1.1325108,-1.1192249,0.22311196
1342,1663945089720,1.1129637,-1.1057862,0.21089502
1343,1663945089720,1.0934166,-1.0813524,0.20112146
1344,1663945089724,1.0726478,-1.0520316,0.19012621
1345,1663945089725,1.0469922,-1.0239327,0.17913096
1346,1663945089731,1.0274451,-0.99461204,0.17180079
1347,1663945089731,1.0066763,-0.9665131,0.16691402
1348,1663945089734,0.9822424,-0.9420792,0.15836215
1349,1663945089735,0.9541434,-0.9176453,0.15591876
1350,1663945089740,0.92970955,-0.8932114,0.15469708
1351,1663945089741,0.907719,-0.8761077,0.15469708
1352,1663945089744,0.8845068,-0.8553389,0.16202724
1353,1663945089745,0.86251634,-0.8272399,0.16691402
1354,1663945089749,0.84296924,-0.79669756,0.17546588
1355,1663945089749,0.8185353,-0.76493347,0.18523943
1356,1663945089754,0.8026533,-0.7343911,0.19745637
1357,1663945089754,0.7782194,-0.70262706,0.20478654
1358,1663945089759,0.7586723,-0.6720847,0.2145601
1359,1663945089759,0.731795,-0.64398575,0.2170035
1360,1663945089764,0.70980453,-0.6219952,0.22433366
1361,1663945089765,0.68292725,-0.60000473,0.22922044
1362,1663945089769,0.6523849,-0.5865661,0.22922044
1363,1663945089769,0.6218425,-0.5755708,0.23410721
1364,1663945089775,0.58519167,-0.5609105,0.22922044
1365,1663945089775,0.54976255,-0.54625016,0.22311196
1366,1663945089780,0.5155551,-0.52670306,0.22066857
1367,1663945089780,0.48379102,-0.5132644,0.2133384
1368,1663945089784,0.4495836,-0.5047125,0.20845163
1369,1663945089785,0.41537613,-0.49371728,0.19623469
1370,1663945089790,0.38361207,-0.48394373,0.18279605
1371,1663945089790,0.351848,-0.47661358,0.17302248
1372,1663945089794,0.32497075,-0.4717268,0.15836215
1373,1663945089795,0.2895416,-0.46439663,0.13759334
1374,1663945089800,0.263886,-0.45828816,0.1253764
1375,1663945089801,0.23945212,-0.45217967,0.10827268
1376,1663945089805,0.21501824,-0.44484952,0.09605573
1377,1663945089805,0.19180603,-0.43141088,0.081395395
1378,1663945089808,0.16981554,-0.42041564,0.056961507
1379,1663945089809,0.15271181,-0.41552883,0.044744562
1380,1663945089813,0.13438639,-0.41430715,0.034971006
1381,1663945089814,0.114839286,-0.41797224,0.02519745
1382,1663945089818,0.098957255,-0.4277458,0.023975754
1383,1663945089824,0.07818845,-0.44240612,0.019088976
1384,1663945089824,0.05619795,-0.45828816,0.01175881
1385,1663945089824,0.030542362,-0.4729485,0.004428643
1386,1663945089828,0.004886778,-0.48638713,-0.004123219
1387,1663945089828,-0.018325418,-0.49738237,-0.011453386
1388,1663945089833,-0.039094225,-0.5083776,-0.0151184695
1389,1663945089834,-0.0684149,-0.51815116,-0.024892027
1390,1663945089838,-0.092848785,-0.5279247,-0.02367033
1391,1663945089838,-0.120947756,-0.5401417,-0.022448637
1392,1663945089843,-0.14293826,-0.5523586,-0.022448637
1393,1663945089844,-0.16981554,-0.5621322,-0.017561859
1394,1663945089848,-0.19669282,-0.56946236,-0.0151184695
1395,1663945089849,-0.2223484,-0.57679254,-0.013896775
1396,1663945089853,-0.24311721,-0.5816793,-0.0029015245
1397,1663945089853,-0.27243787,-0.5865661,-0.006566608
1398,1663945089859,-0.29565006,-0.5902312,-0.00167983
1399,1663945089859,-0.32008398,-0.59389627,0.008093726
1400,1663945089864,-0.34696123,-0.59756136,0.01175881
1401,1663945089864,-0.37017342,-0.6012264,0.026419144
1402,1663945089868,-0.39582902,-0.6097783,0.037414394
1403,1663945089869,-0.4227063,-0.6134434,0.039857782
1404,1663945089874,-0.4459185,-0.61710846,0.04718795
1405,1663945089874,-0.47035238,-0.61955184,0.04963134
1406,1663945089878,-0.49356458,-0.6219952,0.05207473
1407,1663945089878,-0.5131117,-0.6232169,0.059404895
1408,1663945089883,-0.53021544,-0.6244386,0.06306998
1409,1663945089883,-0.5509842,-0.626882,0.065513365
1410,1663945090390,-0.7769977,0.060932014,0.041079476
1411,1663945090403,-0.78799295,-0.0013744063,0.042301174
1412,1663945090404,-0.79654485,-0.057572354,0.045966256
1413,1663945090404,-0.8099835,-0.1137703,0.05451812
1414,1663945090404,-0.8258655,-0.16141638,0.061848287
1415,1663945090404,-0.83930415,-0.20295401,0.06429167
1416,1663945090404,-0.85029936,-0.23349637,0.06795676
1417,1663945090410,-0.85518616,-0.26526043,0.07040015
1418,1663945090410,-0.85762954,-0.30191126,0.07040015
1419,1663945090414,-0.85885125,-0.34589225,0.06795676
1420,1663945090414,-0.86251634,-0.4045336,0.06673507
1421,1663945090417,-0.8649597,-0.47539186,0.059404895
1422,1663945090417,-0.85396445,-0.5169295,0.04963134
1423,1663945090422,-0.83563906,-0.54625016,0.03863609
1424,1663945090422,-0.81242687,-0.5853444,0.017867282
1425,1663945090426,-0.7794411,-0.6036698,-0.00167983
1426,1663945090426,-0.74156857,-0.6097783,-0.02611372
1427,1663945090431,-0.700031,-0.6183301,-0.03955236
1428,1663945090431,-0.65971506,-0.61710846,-0.040774055
1429,1663945090436,-0.6181774,-0.6097783,-0.031000499
1430,1663945090437,-0.58519167,-0.6048915,-0.018783553
1431,1663945090442,-0.56808794,-0.60000473,-0.0077883024
1432,1663945090442,-0.555871,-0.6036698,0.0007635591
1433,1663945090453,-0.5570927,-0.6048915,0.006872032
1434,1663945090453,-0.56442285,-0.6048915,0.006872032
1435,1663945090453,-0.57663983,-0.598783,0.0056503373
1436,1663945090454,-0.59130013,-0.58900946,0.004428643
1437,1663945090457,-0.6022954,-0.57679254,0.0007635591
1438,1663945090457,-0.61695576,-0.5621322,-0.00167983
1439,1663945090462,-0.6255076,-0.5474719,-0.0053449133
1440,1663945090462,-0.63650286,-0.5364766,-0.006566608
1441,1663945090466,-0.6462764,-0.52548134,-0.006566608
1442,1663945090466,-0.6487198,-0.5205946,-0.010231691
1443,1663945090472,-0.65604997,-0.5157078,-0.011453386
1444,1663945090472,-0.6609367,-0.5132644,-0.016340164
1445,1663945090477,-0.6658235,-0.51082104,-0.017561859
1446,1663945090477,-0.67071027,-0.50715595,-0.022448637
1447,1663945090481,-0.67926216,-0.50593424,-0.024892027
1448,1663945090481,-0.67071027,-0.50349087,-0.024892027
1449,1663945090486,-0.6841489,-0.4961607,-0.02611372
1450,1663945090486,-0.6914791,-0.50226915,-0.027335415
1451,1663945090492,-0.69025743,-0.4924956,-0.027335415
1452,1663945090492,-0.69758755,-0.50715595,-0.027335415
1453,1663945090496,-0.70980453,-0.5242597,-0.031000499
1454,1663945090496,-0.69880927,-0.5144861,-0.02611372
1455,1663945090504,-0.70980453,-0.49738237,-0.022448637
1456,1663945090504,-0.7049177,-0.47905695,-0.013896775
1457,1663945090506,-0.7085828,-0.46439663,-0.0029015245
1458,1663945090506,-0.7110262,-0.45217967,0.0007635591
1459,1663945090511,-0.7134696,-0.44484952,0.003206948
1460,1663945090511,-0.7183564,-0.44118443,0.008093726
1461,1663945090515,-0.71713465,-0.43507597,0.01175881
1462,1663945090516,-0.72446483,-0.4277458,0.012980504
1463,1663945090521,-0.72446483,-0.4265241,0.014202199
1464,1663945090521,-0.72202146,-0.41919392,0.014202199
1465,1663945090526,-0.71713465,-0.41675055,0.014202199
1466,1663945090526,-0.7134696,-0.41675055,0.008093726
1467,1663945090530,-0.7073611,-0.41552883,0.0056503373
1468,1663945090530,-0.70125264,-0.41675055,0.0019852535
1469,1663945090538,-0.687814,-0.40942037,-0.0053449133
1470,1663945090538,-0.5900785,-0.23471805,-0.024892027
1471,1663945090542,-0.41293275,0.025502874,-0.062764555
1472,1663945090542,-0.39216393,-0.066124216,-0.08231167
1473,1663945090549,-0.47523916,-0.2896943,-0.07009472
1474,1663945090549,-0.56564456,-0.4472929,-0.04688253
1475,1663945090553,-0.6181774,-0.48638713,-0.029778805
1476,1663945090553,-0.6413896,-0.45217967,-0.02367033
1477,1663945090555,-0.6413896,-0.41186377,-0.028557109
1478,1663945090556,-0.6450547,-0.3776563,-0.035887275
1479,1663945090560,-0.63650286,-0.36788276,-0.044439137
1480,1663945090561,-0.643833,-0.37643462,-0.051769305
1481,1663945090567,-0.6536066,-0.406977,-0.059099473
1482,1663945090567,-0.6658235,-0.44118443,-0.06765133
1483,1663945090570,-0.67926216,-0.46806172,-0.07742489
1484,1663945090570,-0.6927008,-0.49005222,-0.09575031
1485,1663945090574,-0.70125264,-0.50226915,-0.109188944
1486,1663945090575,-0.7073611,-0.5144861,-0.12629268
1487,1663945090583,-0.7134696,-0.52303797,-0.14583978
1488,1663945090583,-0.71713465,-0.5352549,-0.1641652
1489,1663945090585,-0.7232432,-0.54991525,-0.1873774
1490,1663945090585,-0.72690827,-0.5633539,-0.20203774
1491,1663945090592,-0.72935164,-0.5865661,-0.21669807
1492,1663945090592,-0.7391252,-0.6048915,-0.2325801
1493,1663945090595,-0.7379035,-0.6232169,-0.24235365
1494,1663945090595,-0.7427903,-0.6342122,-0.2545706
1495,1663945090599,-0.74523365,-0.64398575,-0.27045262
1496,1663945090599,-0.7464554,-0.65131587,-0.27900448
1497,1663945090605,-0.7427903,-0.6525376,-0.29244313
1498,1663945090606,-0.7342384,-0.6464291,-0.30466008
1499,1663945090610,-0.7232432,-0.63543385,-0.31076854
1500,1663945090610,-0.7049177,-0.61710846,-0.31565532
1501,1663945090614,-0.68659234,-0.58778775,-0.31565532
1502,1663945090615,-0.66704524,-0.5633539,-0.31076854
1503,1663945090619,-0.6499415,-0.54502845,-0.30588177
1504,1663945090619,-0.6377245,-0.5364766,-0.30588177
1505,1663945090626,-0.6267293,-0.5364766,-0.30588177
1506,1663945090626,-0.6230642,-0.5376983,-0.30343837
1507,1663945090630,-0.61939913,-0.53403324,-0.30954686
1508,1663945090630,-0.6145123,-0.5328115,-0.30954686
1509,1663945090642,-0.6059605,-0.52548134,-0.31199023
1510,1663945090642,-0.5986303,-0.5157078,-0.316877
1511,1663945090642,-0.5864134,-0.5083776,-0.316877
1512,1663945090642,-0.5754181,-0.4961607,-0.3193204
1513,1663945090645,-0.56442285,-0.48272204,-0.3205421
1514,1663945090645,-0.55342764,-0.4705051,-0.32176378
1515,1663945090649,-0.53754556,-0.45706648,-0.32176378
1516,1663945090649,-0.527772,-0.43996274,-0.3193204
1517,1663945090654,-0.51799846,-0.42163733,-0.3193204
1518,1663945090655,-0.5045598,-0.4008685,-0.31565532
1519,1663945090659,-0.4947863,-0.37887803,-0.31443363
1520,1663945090659,-0.4874561,-0.35444412,-0.31321192
1521,1663945090664,-0.48379102,-0.32756683,-0.31321192
1522,1663945090664,-0.47890425,-0.30191126,-0.31076854
1523,1663945090671,-0.47768256,-0.27869907,-0.30954686
1524,1663945090671,-0.47035238,-0.25793025,-0.30588177
1525,1663945090674,-0.467909,-0.24204823,-0.2985516
1526,1663945090675,-0.46424392,-0.23227467,-0.29610822
1527,1663945090681,-0.46302223,-0.22005773,-0.29610822
1528,1663945090681,-0.46302223,-0.21761434,-0.2973299
1529,1663945090685,-0.4654656,-0.21639264,-0.2973299
1530,1663945090685,-0.4654656,-0.21150586,-0.2997733
1531,1663945090688,-0.4666873,-0.21517095,-0.30466008
1532,1663945090688,-0.4654656,-0.22372282,-0.31321192
1533,1663945090697,-0.4654656,-0.23349637,-0.31443363
1534,1663945090697,-0.46424392,-0.23838314,-0.31443363
1535,1663945090699,-0.4654656,-0.23716144,-0.31443363
1536,1663945090699,-0.4666873,-0.22738789,-0.316877
1537,1663945090703,-0.46057883,-0.21761434,-0.31443363
1538,1663945090704,-0.4031592,-0.12476555,-0.32787228
1539,1663945090710,-0.2663294,0.07681404,-0.35474956
1540,1663945090710,-0.21746163,0.09147438,-0.36818817
1541,1663945090717,-0.27488127,-0.06001574,-0.3645231
1542,1663945090717,-0.36284328,-0.23471805,-0.34741938
1543,1663945090723,-0.43614495,-0.35077903,-0.33031565
1544,1663945090723,-0.47523916,-0.39109495,-0.3205421
1545,1663945090731,-0.4886778,-0.3800997,-0.31809872
1546,1663945090731,-0.48379102,-0.35200074,-0.32176378
1547,1663945090731,-0.4654656,-0.32390177,-0.32665056
1548,1663945090731,-0.4446968,-0.3153499,-0.33398074
1549,1663945090733,-0.4263714,-0.32756683,-0.34131092
1550,1663945090733,-0.41171107,-0.34833565,-0.34741938
1551,1663945090738,-0.4007158,-0.37521294,-0.34986275
1552,1663945090739,-0.39338565,-0.4008685,-0.35474956
1553,1663945090743,-0.39094225,-0.41675055,-0.35841462
1554,1663945090743,-0.3811687,-0.42163733,-0.36085802
1555,1663945090748,-0.37261683,-0.41552883,-0.3633014
1556,1663945090748,-0.36284328,-0.39476004,-0.3694099
1557,1663945090753,-0.34696123,-0.36910444,-0.37918344
1558,1663945090753,-0.32374904,-0.3324536,-0.39262208
1559,1663945090759,-0.30053684,-0.2945811,-0.39628717
1560,1663945090759,-0.27488127,-0.26526043,-0.39262208
1561,1663945090763,-0.25533417,-0.24449162,-0.3877353
1562,1663945090763,-0.24067383,-0.22983128,-0.38040513
1563,1663945090769,-0.2211267,-0.22738789,-0.37918344
1564,1663945090769,-0.20890976,-0.23349637,-0.3852919
1565,1663945090773,-0.19913621,-0.24326992,-0.3877353
1566,1663945090773,-0.19424942,-0.24449162,-0.3877353
1567,1663945090777,-0.18447587,-0.23471805,-0.3852919
1568,1663945090777,-0.18203248,-0.2249445,-0.3852919
1569,1663945090783,-0.1808108,-0.20661908,-0.3877353
1570,1663945090783,-0.175924,-0.18951537,-0.388957
1571,1663945090788,-0.16615045,-0.17607673,-0.39262208
1572,1663945090788,-0.1563769,-0.17118995,-0.39262208
1573,1663945090793,-0.13438639,-0.16996825,-0.388957
1574,1663945090793,-0.1123959,-0.16385978,-0.3852919
1575,1663945090797,-0.083075225,-0.1601947,-0.38040513
1576,1663945090797,-0.057419643,-0.16141638,-0.37796175
1577,1663945090804,-0.030542362,-0.1565296,-0.37063158
1578,1663945090805,-0.004886778,-0.14797775,-0.3657448
1579,1663945090808,0.017103724,-0.13453911,-0.35841462
1580,1663945090808,0.03298575,-0.11987878,-0.34864107
1581,1663945090812,0.050089475,-0.103996746,-0.33520243
1582,1663945090812,0.0684149,-0.08689302,-0.33031565
1583,1663945090818,0.07818845,-0.08078455,-0.3193204
1584,1663945090818,0.08674031,-0.08322794,-0.30832514
1585,1663945090822,0.09407048,-0.090558104,-0.2973299
1586,1663945090822,0.1111742,-0.100331664,-0.27900448
1587,1663945090827,0.12705623,-0.11010522,-0.26434416
1588,1663945090828,0.15026842,-0.116213694,-0.24479704
1589,1663945090833,0.17348062,-0.116213694,-0.22402823
1590,1663945090833,0.19547112,-0.11132691,-0.2093679
1591,1663945090837,0.21990502,-0.100331664,-0.19104248
1592,1663945090837,0.2455606,-0.09300149,-0.17638214
1593,1663945090842,0.26877278,-0.084449634,-0.17027368
1594,1663945090842,0.30175856,-0.082006246,-0.16050012
1595,1663945090848,0.32985753,-0.08933641,-0.15439165
1596,1663945090848,0.36406496,-0.09910997,-0.15194826
1597,1663945090852,0.4043809,-0.1137703,-0.14706148
1598,1663945090852,0.4471402,-0.12720895,-0.14706148
1599,1663945090857,0.56808794,0.005955761,-0.16294351
1600,1663945090857,0.775776,0.29183227,-0.19226417
1601,1663945090865,0.87473327,0.35658208,-0.19837265
1602,1663945090865,0.8722899,0.25762483,-0.17638214
1603,1663945090867,0.83563906,0.12079505,-0.14706148
1604,1663945090867,0.7989882,-0.018478129,-0.12384928
1605,1663945090872,0.7623374,-0.15408622,-0.09941539
1606,1663945090872,0.7305733,-0.29580277,-0.08108997
1607,1663945090877,0.7049177,-0.43141088,-0.06398625
1608,1663945090877,0.69025743,-0.554802,-0.043217443
1609,1663945090881,0.68659234,-0.66231114,-0.02611372
1610,1663945090881,0.700031,-0.7551599,-0.01267508
1611,1663945090887,0.7513421,-0.8980982,-0.0077883024
1612,1663945090901,0.78799295,-0.96773475,-0.011453386
1613,1663945090901,0.8283089,-1.0324845,-0.01267508
1614,1663945090901,0.8710682,-1.0935693,-0.010231691
1615,1663945090901,0.9113841,-1.1570975,-0.01267508
1616,1663945090901,0.95170003,-1.2145171,-0.017561859
1617,1663945090901,0.99201596,-1.2682716,-0.028557109
1618,1663945090906,1.0384403,-1.318361,-0.040774055
1619,1663945090906,1.0836431,-1.3525685,-0.048104223
1620,1663945090911,1.1373976,-1.3757807,-0.04688253
1621,1663945090911,1.1826003,-1.3879976,-0.038330667
1622,1663945090917,1.2265813,-1.3916627,-0.028557109
1623,1663945090918,1.2656755,-1.3879976,-0.016340164
1624,1663945090921,1.3035481,-1.3965496,-0.004123219
1625,1663945090921,1.3401989,-1.4063231,0.006872032
1626,1663945090933,1.375628,-1.4197618,0.019088976
1627,1663945090933,1.4110571,-1.4344221,0.032527618
1628,1663945090933,1.4428213,-1.4454173,0.04718795
1629,1663945090933,1.4684768,-1.4564126,0.053296424
1630,1663945090937,1.4941324,-1.4661862,0.061848287
1631,1663945090938,1.5295615,-1.4735163,0.069178455
1632,1663945090941,1.5552171,-1.4869549,0.07773031
1633,1663945090941,1.5784293,-1.4893984,0.08383878
1634,1663945090946,1.6101934,-1.4930634,0.09239065
1635,1663945090946,1.635849,-1.4955068,0.10094251
1636,1663945090951,1.651731,-1.4918417,0.10094251
1637,1663945090951,1.67983,-1.4845115,0.119267926
1638,1663945090957,1.7067072,-1.4820682,0.13392825
1639,1663945090957,1.720146,-1.4710729,0.1485886
1640,1663945090960,1.739693,-1.4527475,0.17302248
1641,1663945090961,1.7543533,-1.4283136,0.19623469
1642,1663945090965,1.7629052,-1.3953278,0.22677705
1643,1663945090965,1.7714571,-1.3623421,0.2597628
1644,1663945090972,1.7787873,-1.3195828,0.29030517
1645,1663945090972,1.7800089,-1.2743801,0.326956
1646,1663945090976,1.7714571,-1.2218472,0.36116344
1647,1663945090977,1.7739004,-1.1583191,0.39048412
1648,1663945090982,1.7665703,-1.091126,0.42346987
1649,1663945090982,1.7653486,-1.0153809,0.45401222
1650,1663945090987,1.7555751,-0.9396358,0.4883724
1651,1663945090987,1.7506882,-0.85411716,0.5201364
1652,1663945090991,1.7384713,-0.76859856,0.5506788
1653,1663945090991,1.7238109,-0.6879667,0.57999945
1654,1663945090995,1.7067072,-0.6024481,0.6105418
1655,1663945090995,1.6883818,-0.52181625,0.6374191
1656,1663945091000,1.6651696,-0.44362783,0.6642964
1657,1663945091000,1.635849,-0.37521294,0.68628687
1658,1663945091005,1.6089717,-0.3129065,0.7107208
1659,1663945091005,1.579651,-0.26403874,0.7327113
1660,1663945091011,1.5466653,-0.23471805,0.7510367
1661,1663945091011,1.5112361,-0.21272756,0.76814044
1662,1663945091016,1.475807,-0.2041757,0.78402245
1663,1663945091016,1.4428213,-0.20784079,0.79990447
1664,1663945091020,1.4098355,-0.22250111,0.81089973
1665,1663945091020,1.3768498,-0.24449162,0.8182299
1666,1663945091026,1.3463074,-0.27747735,0.82678175
1667,1663945091026,1.3218734,-0.3129065,0.83533365
1668,1663945091031,1.3927318,-0.11743539,0.8292252
1669,1663945091031,1.5393351,0.20264858,0.8194516
1670,1663945091038,1.5539954,0.14767233,0.83166856
1671,1663945091038,1.4611466,-0.14186928,0.865876
1672,1663945091042,1.359746,-0.46073154,0.9061919
1673,1663945091043,1.2632321,-0.7160657,0.9269607
1674,1663945091045,1.1972606,-0.88588125,0.9294041
1675,1663945091045,1.1642749,-0.9885036,0.92085224
1676,1663945091050,1.1471711,-1.0764656,0.9110787
1677,1663945091050,1.1410627,-1.1644276,0.90130514
1678,1663945091054,1.143506,-1.254833,0.8903099
1679,1663945091054,1.1508362,-1.3501252,0.87809294
1680,1663945091060,1.1667182,-1.4490824,0.8622109
1681,1663945091060,1.1826003,-1.546818,0.8451072
1682,1663945091065,1.2033691,-1.6298932,0.8292252
1683,1663945091065,1.2326897,-1.6873128,0.81578654
1684,1663945091071,1.2607888,-1.7337372,0.80723464
1685,1663945091071,1.287666,-1.766723,0.8047913
1686,1663945091074,1.3096565,-1.7984871,0.8023479
1687,1663945091074,1.3243169,-1.8216993,0.8023479
1688,1663945091080,1.3401989,-1.8497982,0.80356956
1689,1663945091080,1.3401989,-1.874232,0.80356956
1690,1663945091085,1.343864,-1.898666,0.80845636
1691,1663945091085,1.3353121,-1.9133264,0.81089973
1692,1663945091090,1.3255385,-1.9230999,0.81578654
1693,1663945091090,1.3120999,-1.9206564,0.8182299
1694,1663945091094,1.2937745,-1.9169914,0.8194516
1695,1663945091094,1.2693406,-1.9096613,0.82311666
1696,1663945091099,1.2510152,-1.9023311,0.82800347
1697,1663945091099,1.227803,-1.8950009,0.83166856
1698,1663945091104,1.2058125,-1.8888924,0.83533365
1699,1663945091104,1.1813786,-1.8815622,0.84266376
1700,1663945091110,1.155723,-1.8791189,0.8414421
1701,1663945091110,1.1386193,-1.8717887,0.8487723
1702,1663945091113,1.1202939,-1.8681237,0.8524374
1703,1663945091113,1.1105204,-1.8607935,0.85365903
1704,1663945091118,1.0946383,-1.8571284,0.8524374
1705,1663945091118,1.0836431,-1.8485765,0.8524374
1706,1663945091123,1.0677611,-1.8412464,0.84999394
1707,1663945091123,1.0592091,-1.8314728,0.8451072
1708,1663945091130,1.0494356,-1.8180342,0.8402204
1709,1663945091130,1.0384403,-1.8070389,0.83533365
1710,1663945091133,1.0335536,-1.7911569,0.8341119
1711,1663945091133,1.0262234,-1.77894,0.8292252
1712,1663945091138,1.0164498,-1.7655013,0.8243384
1713,1663945091139,1.0054545,-1.7508409,0.8206733
1714,1663945091145,0.99568105,-1.7374023,0.81578654
1715,1663945091145,0.98835087,-1.7239636,0.81089973
1716,1663945091150,0.9822424,-1.7178552,0.8060129
1717,1663945091150,0.9700254,-1.710525,0.7962394
1718,1663945091155,0.9614736,-1.7031949,0.7901309
1719,1663945091155,0.9541434,-1.7031949,0.7864658
1720,1663945091160,0.9394831,-1.7007514,0.7766923
1721,1663945091161,0.92482275,-1.6934214,0.7705838
1722,1663945091163,0.9162709,-1.6848694,0.7669187
1723,1663945091163,0.9040539,-1.6677657,0.762032
1724,1663945091169,0.8942804,-1.654327,0.7559235
1725,1663945091169,0.87839836,-1.638445,0.7534801
1726,1663945091173,0.8686248,-1.6298932,0.7510367
1727,1663945091173,0.85762954,-1.6164546,0.7547018
1728,1663945091178,0.8490777,-1.6030159,0.7547018
1729,1663945091178,0.83808243,-1.5920206,0.7534801
1730,1663945091183,0.8283089,-1.5859122,0.749815
1731,1663945091183,0.81975704,-1.5773604,0.7461499
1732,1663945091189,0.8099835,-1.5627,0.74126315
1733,1663945091189,0.80387497,-1.546818,0.74126315
1734,1663945091199,0.79532313,-1.5370444,0.74248487
1735,1663945091200,0.78799295,-1.5174973,0.74126315
1736,1663945091200,0.78432786,-1.5052804,0.7437065
1737,1663945091200,0.77211094,-1.5003936,0.74492824
1738,1663945091203,0.7623374,-1.49062,0.7437065
1739,1663945091203,0.7611157,-1.4515258,0.74004143
1740,1663945091208,0.76478076,-1.3818892,0.74126315
1741,1663945091209,0.7586723,-1.3061441,0.7388198
1742,1663945091213,0.7513421,-1.2694933,0.73637635
1743,1663945091213,0.7232432,-1.2768235,0.7241594
1744,1663945091218,0.687814,-1.302479,0.7107208
1745,1663945091218,0.6523849,-1.3281347,0.69361705
1746,1663945091223,0.61695576,-1.342795,0.6765133
1747,1663945091223,0.59130013,-1.3440167,0.6630747
1748,1663945091228,0.56808794,-1.3305781,0.6569662
1749,1663945091228,0.54609746,-1.3073659,0.6484144
1750,1663945091232,0.5289937,-1.2768235,0.6410842
1751,1663945091233,0.51189,-1.2523896,0.63131064
1752,1663945091237,0.4947863,-1.2328424,0.6203154
1753,1663945091237,0.47523916,-1.2169604,0.61176354
1754,1663945091243,0.46180052,-1.2084086,0.60321164
1755,1663945091243,0.4495836,-1.2010784,0.5946598
1756,1663945091247,0.43492326,-1.1913049,0.58488625
1757,1663945091248,0.4202629,-1.182753,0.5824429
1758,1663945091252,0.40560257,-1.1766446,0.5751127
1759,1663945091252,0.39338565,-1.1729795,0.56900424
1760,1663945091259,0.38361207,-1.1790879,0.5677825
1761,1663945091259,0.36895174,-1.182753,0.56533915
1762,1663945091262,0.3567348,-1.1913049,0.56167406
1763,1663945091263,0.3384094,-1.1949699,0.5628958
1764,1663945091268,0.32130566,-1.1913049,0.55678725
1765,1663945091268,0.30542362,-1.1851964,0.5543439
1766,1663945091273,0.29565006,-1.166871,0.5470137
1767,1663945091273,0.29442838,-1.1473238,0.5360185
1768,1663945091277,0.2932067,-1.1180032,0.5274666
1769,1663945091277,0.30175856,-1.091126,0.5164714
1770,1663945091282,0.30542362,-1.0679138,0.5042544
1771,1663945091282,0.32008398,-1.0495883,0.49692425
1772,1663945091287,0.3310792,-1.034928,0.48959407
1773,1663945091287,0.34085277,-1.0202676,0.48226392
1774,1663945091292,0.34940463,-1.0080507,0.47859883
1775,1663945091292,0.3579565,-0.99094695,0.47615543
1776,1663945091297,0.3555131,-0.9775083,0.47126865
1777,1663945091297,0.34573954,-0.9689565,0.46882528
1778,1663945091302,0.3347443,-0.9652914,0.46745086
1779,1663945091302,0.3151972,-0.9616263,0.46500748
1780,1663945091307,0.2895416,-0.96406966,0.4601207
1781,1663945091307,0.26266432,-0.97506493,0.458899
1782,1663945091313,0.23578705,-0.98728186,0.45523393
1783,1663945091313,0.2003579,-1.006829,0.45034716
1784,1663945091316,0.16615045,-1.0300412,0.44423866
1785,1663945091316,0.12949961,-1.0605836,0.4381302
1786,1663945091321,0.09162709,-1.091126,0.42835665
1787,1663945091321,0.054976255,-1.1167815,0.41980478
1788,1663945091326,0.018325418,-1.138772,0.40880954
1789,1663945091327,-0.017103724,-1.1619842,0.39903596
1790,1663945091332,-0.04886778,-1.1754228,0.38437563
1791,1663945091332,-0.07330167,-1.1815313,0.37460208
1792,1663945091337,-0.09651387,-1.1766446,0.36849362
1793,1663945091337,-0.11606098,-1.1656493,0.36116344
1794,1663945091341,-0.131943,-1.1558757,0.36116344
1795,1663945091341,-0.15149012,-1.1412154,0.36360684
1796,1663945091347,-0.16981554,-1.1314418,0.36482853
1797,1663945091347,-0.19058435,-1.1216683,0.3721587
1798,1663945091352,-0.21013145,-1.1180032,0.370937
1799,1663945091352,-0.22845687,-1.1118947,0.370937
1800,1663945091357,-0.25044736,-1.107008,0.3721587
1801,1663945091357,-0.2699945,-1.0996778,0.3721587
1802,1663945091361,-0.2895416,-1.091126,0.37582377
1803,1663945091361,-0.30542362,-1.091126,0.37704548
1804,1663945091366,-0.3164189,-1.0899042,0.37704548
1805,1663945091366,-0.3286358,-1.0886825,0.38193226
1806,1663945091370,-0.3384094,-1.0874609,0.38315395
1807,1663945091371,-0.34696123,-1.0886825,0.38315395
1808,1663945091376,-0.351848,-1.082574,0.38804072
1809,1663945091376,-0.3567348,-1.0813524,0.38804072
1810,1663945091382,-0.36039987,-1.0764656,0.38804072
1811,1663945091382,-0.3616216,-1.0679138,0.3929275
1812,1663945091388,-0.36284328,-1.0630269,0.3929275
1813,1663945091388,-0.3591782,-1.0593618,0.40147936
1814,1663945091400,-0.3579565,-1.0520316,0.40636614
1815,1663945091400,-0.3579565,-1.05081,0.41003123
1816,1663945091400,-0.3555131,-1.0471449,0.414918
1817,1663945091400,-0.3542914,-1.0471449,0.41980478
1818,1663945091401,-0.3555131,-1.0544751,0.42224815
1819,1663945091401,-0.36039987,-1.0642487,0.42346987
1820,1663945091405,-0.36650836,-1.0789089,0.42346987
1821,1663945091405,-0.37261683,-1.0935693,0.42346987
1822,1663945091411,-0.37628192,-1.1118947,0.42469156
1823,1663945091411,-0.38483378,-1.1338853,0.42346987
1824,1663945091415,-0.4007158,-1.154654,0.4161397
1825,1663945091415,-0.40193748,-1.1742011,0.4161397
1826,1663945091421,-0.40682426,-1.1961917,0.41125292
1827,1663945091421,-0.41293275,-1.2132953,0.40636614
1828,1663945091425,-0.4202629,-1.2401726,0.40392274
1829,1663945091426,-0.42881477,-1.2719367,0.39903596
1830,1663945091431,-0.44103172,-1.3037008,0.3965926
1831,1663945091431,-0.44836187,-1.3354648,0.3953709
1832,1663945091436,-0.45447037,-1.3574554,0.39048412
1833,1663945091436,-0.4666873,-1.3831109,0.38804072
1834,1663945091440,-0.46424392,-1.402658,0.38559732
1835,1663945091440,-0.4691307,-1.4087665,0.37826717
1836,1663945091446,-0.4666873,-1.4148749,0.37582377
1837,1663945091446,-0.45935714,-1.4148749,0.3697153
1838,1663945091451,-0.4495836,-1.4112098,0.3672719
1839,1663945091451,-0.43858832,-1.4038798,0.3672719
1840,1663945091455,-0.41537613,-1.3879976,0.3660502
1841,1663945091455,-0.39827242,-1.3647854,0.370937
1842,1663945091461,-0.3738385,-1.3440167,0.37704548
1843,1663945091461,-0.35062632,-1.314696,0.38804072
1844,1663945091465,-0.32741413,-1.2817103,0.40270105
1845,1663945091465,-0.30542362,-1.2597197,0.4185831
1846,1663945091469,-0.28221142,-1.2377293,0.4356868
1847,1663945091469,-0.27121618,-1.2242906,0.45034716
1848,1663945091474,-0.25777754,-1.2047435,0.46256408
1849,1663945091474,-0.24678229,-1.1851964,0.47493374
1850,1663945091479,-0.23334365,-1.1680927,0.4883724
1851,1663945091479,-0.2235701,-1.154654,0.49570256
1852,1663945091485,-0.21623993,-1.1412154,0.5005893
1853,1663945091485,-0.20646638,-1.1326635,0.50303274
1854,1663945091489,-0.19669282,-1.1289984,0.51036286
1855,1663945091489,-0.19302773,-1.1277767,0.51524967
1856,1663945091494,-0.18691926,-1.1265551,0.51524967
1857,1663945091494,-0.1795891,-1.1265551,0.51402795
1858,1663945091499,-0.17470232,-1.12289,0.5164714
1859,1663945091499,-0.1771457,-1.1180032,0.5079195
1860,1663945091505,-0.17225893,-1.107008,0.5066978
1861,1663945091505,-0.16981554,-1.0972344,0.5054761
1862,1663945091511,-0.17225893,-1.0850174,0.5005893
1863,1663945091511,-0.175924,-1.0715789,0.5054761
1864,1663945091514,-0.18325418,-1.0581402,0.5042544
1865,1663945091514,-0.19180603,-1.0459232,0.5091412
1866,1663945091520,-0.20890976,-1.0434798,0.5091412
1867,1663945091520,-0.2223484,-1.0080507,0.5066978
1868,1663945091524,-0.23212196,-0.95673954,0.5128063
1869,1663945091524,-0.24189551,-0.90542835,0.51891476
1870,1663945091529,-0.25777754,-0.8602257,0.52257985
1871,1663945091529,-0.2736596,-0.81502295,0.53357506
1872,1663945091534,-0.2932067,-0.77348536,0.54090524
1873,1663945091534,-0.3164189,-0.7380562,0.54945713
1874,1663945091538,-0.3347443,-0.7087355,0.5628958
1875,1663945091539,-0.3616216,-0.67452806,0.5677825
1876,1663945091544,-0.3775036,-0.6525376,0.5763344
1877,1663945091544,-0.3970507,-0.63176876,0.57999945
1878,1663945091548,-0.41415444,-0.61222166,0.5714476
1879,1663945091549,-0.41781953,-0.59633964,0.56900424
1880,1663945091553,-0.41781953,-0.5792359,0.56167406
1881,1663945091554,-0.41904122,-0.56457555,0.54090524
1882,1663945091560,-0.41659784,-0.5609105,0.52624494
1883,1663945091560,-0.41293275,-0.57312745,0.50303274
1884,1663945091564,-0.41659784,-0.59633964,0.47493374
1885,1663945091564,-0.40560257,-0.6232169,0.45156884
1886,1663945091568,-0.4031592,-0.6525376,0.4161397
1887,1663945091568,-0.38972056,-0.68674505,0.38559732
1888,1663945091574,-0.3787253,-0.7160657,0.35261157
1889,1663945091574,-0.37017342,-0.7404996,0.31351736
1890,1663945091578,-0.36039987,-0.77348536,0.28419667
1891,1663945091578,-0.3542914,-0.8064711,0.25121093
1892,1663945091584,-0.34818295,-0.8724426,0.21822518
1893,1663945091584,-0.34085277,-0.8993199,0.1913479
1894,1663945091588,-0.3310792,-0.8968765,0.16080554
1895,1663945091588,-0.32008398,-0.8736643,0.13270657
1896,1663945091593,-0.30420193,-0.83579177,0.11438115
1897,1663945091593,-0.3090887,-0.8015843,0.08628218
1898,1663945091598,-0.3090887,-0.76859856,0.06673507
1899,1663945091598,-0.31764057,-0.7368345,0.05207473
1900,1663945091603,-0.32619244,-0.7087355,0.033749312
1901,1663945091603,-0.34451786,-0.67452806,0.02519745
1902,1663945091608,-0.37261683,-0.6488725,0.012980504
1903,1663945091608,-0.3970507,-0.6256603,0.009315421
1904,1663945091614,-0.43981004,-0.61222166,0.006872032
1905,1663945091614,-0.47646087,-0.59267455,-0.006566608
1906,1663945091618,-0.5155551,-0.56946236,-0.0077883024
1907,1663945091618,-0.55342764,-0.54991525,-0.01267508
1908,1663945091622,-0.5949652,-0.5328115,-0.022448637
1909,1663945091623,-0.6377245,-0.52303797,-0.02611372
1910,1663945091628,-0.6804838,-0.51815116,-0.035887275
1911,1663945091628,-0.7232432,-0.51815116,-0.044439137
1912,1663945091633,-0.7635591,-0.5193729,-0.05787778
1913,1663945091633,-0.7941014,-0.5242597,-0.06642964
1914,1663945091637,-0.8258655,-0.5352549,-0.08108997
1915,1663945091638,-0.8527428,-0.54625016,-0.094528615
1916,1663945091643,-0.87473327,-0.55724543,-0.11407573
1917,1663945091643,-0.8845068,-0.5706841,-0.13240114
1918,1663945091647,-0.88328516,-0.5792359,-0.15194826
1919,1663945091647,-0.8674031,-0.5865661,-0.1653869
1920,1663945091653,-0.847856,-0.5865661,-0.17760384
1921,1663945091654,-0.8173136,-0.5853444,-0.19348587
1922,1663945091658,-0.7794411,-0.5841227,-0.20325942
1923,1663945091658,-0.72935164,-0.59145284,-0.20692451
1924,1663945091663,-0.6890357,-0.6183301,-0.21669807
1925,1663945091663,-0.6426113,-0.6281037,-0.21791977
1926,1663945091667,-0.5864134,-0.61099994,-0.21669807
1927,1663945091667,-0.527772,-0.59389627,-0.21669807
1928,1663945091672,-0.467909,-0.57434916,-0.20448112
1929,1663945091673,-0.41415444,-0.55724543,-0.19470756
1930,1663945091677,-0.36284328,-0.5364766,-0.1861557
1931,1663945091678,-0.3115321,-0.5205946,-0.17027368
1932,1663945091683,-0.26877278,-0.5132644,-0.16660859
1933,1663945091683,-0.22845687,-0.48516545,-0.15683503
1934,1663945091688,-0.19180603,-0.44484952,-0.14339639
1935,1663945091688,-0.1563769,-0.40819868,-0.13728791
1936,1663945091692,-0.131943,-0.37154785,-0.12751436
1937,1663945091692,-0.10384403,-0.34344888,-0.11774081
1938,1663945091697,-0.087962,-0.32268006,-0.11163234
1939,1663945091698,-0.076966755,-0.30557635,-0.100637086
1940,1663945091702,-0.0659715,-0.2970245,-0.08964183
1941,1663945091703,-0.0659715,-0.2921377,-0.08108997
1942,1663945091708,-0.067193195,-0.2896943,-0.06765133
1943,1663945091709,-0.08429692,-0.28725094,-0.059099473
1944,1663945091710,-0.10384403,-0.290916,-0.04566083
1945,1663945091715,-0.12461284,-0.29824618,-0.029778805
1946,1663945091715,-0.1563769,-0.30557635,-0.01267508
1947,1663945091721,-0.19302773,-0.3141282,0.003206948
1948,1663945091721,-0.23578705,-0.32634515,0.021532366
1949,1663945091725,-0.28343314,-0.34100547,0.042301174
1950,1663945091725,-0.33718768,-0.3654394,0.056961507
1951,1663945091729,-0.39460734,-0.38865158,0.0801737
1952,1663945091730,-0.45691374,-0.42041564,0.09849912
1953,1663945091734,-0.5204419,-0.46195325,0.11804623
1954,1663945091734,-0.58885676,-0.50715595,0.13759334
1955,1663945091739,-0.65482825,-0.56457555,0.15225367
1956,1663945091739,-0.72079974,-0.6244386,0.16691402
1957,1663945091745,-0.7867713,-0.68185824,0.18035266
1958,1663945091745,-0.8466343,-0.7417213,0.1925696
1959,1663945091749,-0.90283227,-0.8040277,0.20845163
1960,1663945091749,-0.94925666,-0.86633414,0.22555535
1961,1663945091754,-0.9932376,-0.9274188,0.24510247
1962,1663945091754,-1.0335536,-0.98361677,0.26953635
1963,1663945091759,-1.0665393,-1.0398147,0.29885703
1964,1663945091759,-1.0995251,-1.0935693,0.3281777
1965,1663945091764,-1.1215155,-1.1424371,0.36116344
1966,1663945091764,-1.1410627,-1.182753,0.3929275
1967,1663945091768,-1.155723,-1.2194039,0.42835665
1968,1663945091769,-1.1618315,-1.2499462,0.46500748
1969,1663945091774,-1.1606098,-1.2682716,0.5005893
1970,1663945091775,-1.1618315,-1.2743801,0.5323534
1971,1663945091779,-1.1496146,-1.2804886,0.56411743
1972,1663945091780,-1.1373976,-1.2756017,0.5946598
1973,1663945091784,-1.1215155,-1.2597197,0.6227588
1974,1663945091785,-1.0995251,-1.2365075,0.645971
1975,1663945091788,-1.0726478,-1.2084086,0.6679615
1976,1663945091789,-1.0518789,-1.170536,0.6801784
1977,1663945091793,-1.0274451,-1.1277767,0.69483876
1978,1663945091794,-0.9981244,-1.0801307,0.7070557
1979,1663945091798,-0.97246885,-1.0251545,0.7119425
1980,1663945091799,-0.94436985,-0.96773475,0.71805096
1981,1663945091804,-0.919936,-0.90909344,0.7156076
1982,1663945091804,-0.8955021,-0.8492304,0.7070557
1983,1663945091808,-0.875955,-0.79181075,0.7009472
1984,1663945091808,-0.85762954,-0.7343911,0.68262184
1985,1663945091814,-0.8405258,-0.67819315,0.6679615
1986,1663945091814,-0.82708716,-0.62077355,0.65085775
1987,1663945091818,-0.8136485,-0.56946236,0.62642384
1988,1663945091818,-0.8063184,-0.5242597,0.60321164
1989,1663945091825,-0.79654485,-0.48394373,0.57999945
1990,1663945091825,-0.7977665,-0.45095798,0.54945713
1991,1663945091828,-0.79532313,-0.4277458,0.5201364
1992,1663945091829,-0.79532313,-0.406977,0.4847073
1993,1663945091833,-0.79165804,-0.38865158,0.44668207
1994,1663945091833,-0.78799295,-0.36299598,0.40880954
1995,1663945091839,-0.7867713,-0.34344888,0.36238512
1996,1663945091839,-0.7831062,-0.32390177,0.3232909
1997,1663945091843,-0.7855496,-0.33001024,0.27442312
1998,1663945091843,-0.7989882,-0.3556658,0.22433366
1999,1663945091848,-0.80754006,-0.3556658,0.18157434
2000,1663945091848,-0.80754006,-0.3397838,0.14492351
2001,1663945091853,-0.80754006,-0.3092414,0.11071607
2002,1663945091853,-0.7989882,-0.27503398,0.09361234
2003,1663945091858,-0.79287976,-0.2481567,0.075286925
2004,1663945091858,-0.79165804,-0.22127941,0.053296424
2005,1663945091864,-0.7818845,-0.2041757,0.044744562
2006,1663945091864,-0.78432786,-0.18829367,0.030084228
2007,1663945091868,-0.7831062,-0.18340689,0.019088976
2008,1663945091868,-0.7818845,-0.18218519,0.010537115
2009,1663945091873,-0.7769977,-0.18707198,-0.00045813544
2010,1663945091873,-0.7794411,-0.19684553,-0.009009997
2011,1663945091878,-0.7745543,-0.20906247,-0.01267508
2012,1663945091878,-0.77333266,-0.22983128,-0.017561859
2013,1663945091883,-0.77211094,-0.25304347,-0.018783553
2014,1663945091883,-0.7635591,-0.28480753,-0.017561859
2015,1663945091891,-0.7427903,-0.30068958,-0.010231691
2016,1663945091919,-0.7305733,-0.3092414,-0.006566608
2017,1663945091919,-0.715913,-0.32023668,-0.00167983
2018,1663945091919,-0.6951442,-0.334897,0.0019852535
2019,1663945091919,-0.68170553,-0.34955734,0.0056503373
2020,1663945091920,-0.6682669,-0.36788276,0.0056503373
2021,1663945091920,-0.6536066,-0.3825431,0.008093726
2022,1663945091920,-0.63528115,-0.39109495,0.014202199
2023,1663945091920,-0.61206895,-0.38987327,0.019088976
2024,1663945091920,-0.5949652,-0.38865158,0.016645588
2025,1663945091920,-0.5754181,-0.39598173,0.016645588
2026,1663945091920,-0.5632012,-0.39964682,0.01175881
2027,1663945091920,-0.54854083,-0.4045336,0.0056503373
2028,1663945091922,-0.5326588,-0.41186377,0.003206948
2029,1663945091922,-0.5204419,-0.4240807,-0.0029015245
2030,1663945091927,-0.51066834,-0.43141088,-0.009009997
2031,1663945091927,-0.49967307,-0.44240612,-0.010231691
2032,1663945091931,-0.49356458,-0.45584476,-0.013896775
2033,1663945091932,-0.4886778,-0.4692834,-0.018783553
2034,1663945091937,-0.48623443,-0.48150036,-0.021226943
2035,1663945091937,-0.48379102,-0.494939,-0.022448637
2036,1663945091943,-0.4874561,-0.494939,-0.021226943
2037,1663945091943,-0.4874561,-0.50715595,-0.020005248
2038,1663945091947,-0.4947863,-0.5120427,-0.016340164
2039,1663945091947,-0.49967307,-0.5205946,-0.01267508
2040,1663945091952,-0.50700325,-0.52181625,-0.0053449133
2041,1663945091952,-0.52166355,-0.52670306,-0.00045813544
2042,1663945091957,-0.5363239,-0.52303797,0.010537115
2043,1663945091957,-0.54121065,-0.5242597,0.017867282
2044,1663945091962,-0.5570927,-0.52303797,0.020310672
2045,1663945091962,-0.571753,-0.52181625,0.033749312
2046,1663945091967,-0.58763504,-0.52181625,0.033749312
2047,1663945091967,-0.6035171,-0.5205946,0.042301174
2048,1663945091971,-0.61695576,-0.5205946,0.045966256
2049,1663945091971,-0.62795097,-0.52181625,0.04718795
2050,1663945091977,-0.6450547,-0.5157078,0.04963134
2051,1663945091977,-0.6523849,-0.5157078,0.048409645
2052,1663945091982,-0.6572716,-0.51815116,0.05451812
2053,1663945091982,-0.6658235,-0.5132644,0.055739813
2054,1663945091986,-0.6621584,-0.5157078,0.056961507
2055,1663945091986,-0.6621584,-0.5157078,0.059404895
2056,1663945091991,-0.6621584,-0.5205946,0.06306998
2057,1663945091991,-0.65604997,-0.52670306,0.065513365
2058,1663945091996,-0.6536066,-0.5315898,0.06795676
2059,1663945091996,-0.6462764,-0.53892,0.07040015
2060,1663945092001,-0.6426113,-0.54625016,0.069178455
2061,1663945092001,-0.6377245,-0.54869354,0.06795676
2062,1663945092006,-0.63650286,-0.5511369,0.065513365
2063,1663945092006,-0.6291727,-0.5560237,0.061848287
2064,1663945092011,-0.6291727,-0.5584671,0.05451812
2065,1663945092011,-0.6267293,-0.56457555,0.048409645
2066,1663945092015,-0.6230642,-0.56457555,0.04352287
2067,1663945092016,-0.61329067,-0.56946236,0.037414394
2068,1663945092021,-0.61329067,-0.56824064,0.026419144
2069,1663945092021,-0.6047388,-0.56946236,0.017867282
2070,1663945092025,-0.6035171,-0.57312745,0.0056503373
2071,1663945092025,-0.5974086,-0.57679254,-0.0053449133
2072,1663945092031,-0.59374356,-0.5706841,-0.01267508
2073,1663945092031,-0.59252185,-0.56946236,-0.027335415
2074,1663945092035,-0.58885676,-0.5633539,-0.038330667
2075,1663945092036,-0.5864134,-0.5584671,-0.04688253
2076,1663945092041,-0.5864134,-0.5560237,-0.059099473
2077,1663945092041,-0.58885676,-0.5523586,-0.06520794
2078,1663945092045,-0.5974086,-0.54502845,-0.07742489
2079,1663945092046,-0.6035171,-0.5364766,-0.08842014
2080,1663945092050,-0.61206895,-0.52670306,-0.09575031
2081,1663945092050,-0.6206208,-0.5095993,-0.106745556
2082,1663945092055,-0.6267293,-0.49982578,-0.11529742
2083,1663945092055,-0.63650286,-0.4924956,-0.12629268
2084,1663945092061,-0.6450547,-0.48760882,-0.13728791
2085,1663945092061,-0.6572716,-0.48150036,-0.14706148
2086,1663945092065,-0.66338015,-0.47905695,-0.15805672
2087,1663945092065,-0.6731537,-0.47661358,-0.16905198
2088,1663945092070,-0.68170553,-0.4705051,-0.18004723
2089,1663945092070,-0.687814,-0.48027867,-0.19592926
2090,1663945092075,-0.69758755,-0.48760882,-0.2081462
2091,1663945092075,-0.700031,-0.48027867,-0.21547636
2092,1663945092080,-0.6951442,-0.4534014,-0.21791977
2093,1663945092084,-0.6951442,-0.43263257,-0.21791977
2094,1663945092085,-0.6914791,-0.40819868,-0.22036316
2095,1663945092085,-0.68659234,-0.3837648,-0.22036316
2096,1663945092090,-0.68292725,-0.3617743,-0.22524993
2097,1663945092090,-0.6768188,-0.33734038,-0.22769332
2098,1663945092095,-0.6731537,-0.3153499,-0.2313584
2099,1663945092095,-0.66338015,-0.2921377,-0.2325801
2100,1663945092100,-0.65849334,-0.27503398,-0.23380178
2101,1663945092100,-0.65604997,-0.25670856,-0.23746687
2102,1663945092104,-0.6474981,-0.24571331,-0.24235365
2103,1663945092105,-0.6377245,-0.23838314,-0.24601874
2104,1663945092110,-0.6267293,-0.24449162,-0.25945738
2105,1663945092110,-0.6145123,-0.24571331,-0.26434416
2106,1663945092115,-0.6022954,-0.23105298,-0.26312247
2107,1663945092115,-0.58396995,-0.21394925,-0.26678753
2108,1663945092120,-0.5668663,-0.19562383,-0.26434416
2109,1663945092120,-0.555871,-0.17485502,-0.26678753
2110,1663945092124,-0.539989,-0.17241164,-0.26678753
2111,1663945092125,-0.527772,-0.16752486,-0.2716743
2112,1663945092129,-0.5192202,-0.16996825,-0.2753394
2113,1663945092130,-0.51066834,-0.17729841,-0.2765611
2114,1663945092134,-0.5082249,-0.18218519,-0.28266957
2115,1663945092135,-0.49845135,-0.19318044,-0.28022617
2116,1663945092140,-0.49600798,-0.20661908,-0.2814479
2117,1663945092140,-0.49722967,-0.20906247,-0.28511295
2118,1663945092145,-0.49845135,-0.21272756,-0.28877804
2119,1663945092145,-0.49967307,-0.20784079,-0.2948865
2120,1663945092150,-0.5008947,-0.20906247,-0.2985516
2121,1663945092150,-0.49722967,-0.20173231,-0.2997733
2122,1663945092154,-0.49600798,-0.19562383,-0.300995
2123,1663945092154,-0.49600798,-0.18951537,-0.30466008
2124,1663945092159,-0.4911212,-0.1797418,-0.30832514
2125,1663945092159,-0.49356458,-0.17118995,-0.32665056
2126,1663945092164,-0.48379102,-0.17363334,-0.33642414
2127,1663945092164,-0.47890425,-0.1577513,-0.3425326
2128,1663945092169,-0.47035238,-0.13331741,-0.35108447
2129,1663945092169,-0.4654656,-0.10277505,-0.3461977
2130,1663945092174,-0.45202696,-0.07711947,-0.34741938
2131,1663945092174,-0.4446968,-0.051463883,-0.35474956
2132,1663945092179,-0.4300365,-0.036803547,-0.3620797
2133,1663945092179,-0.41781953,-0.025808297,-0.36818817
2134,1663945092184,-0.40560257,-0.016034741,-0.37796175
2135,1663945092184,-0.38605547,-0.008704574,-0.38040513
2136,1663945092189,-0.37017342,-0.0038177953,-0.388957
2137,1663945092189,-0.351848,-0.007482879,-0.39262208
2138,1663945092194,-0.33352262,-0.0038177953,-0.388957
2139,1663945092194,-0.31886226,-0.0038177953,-0.39873055
2140,1663945092200,-0.30175856,-0.0038177953,-0.39873055
2141,1663945092200,-0.2870982,-0.0038177953,-0.39628717
2142,1663945092204,-0.2736596,0.0010689828,-0.39873055
2143,1663945092204,-0.263886,0.0071774554,-0.39384377
2144,1663945092209,-0.25899923,0.0132859275,-0.39628717
2145,1663945092209,-0.25289077,0.020616096,-0.39628717
2146,1663945092213,-0.25166908,0.026724568,-0.39140037
2147,1663945092214,-0.25166908,0.031611346,-0.39140037
2148,1663945092219,-0.25655586,0.03771982,-0.3877353
2149,1663945092220,-0.26022094,0.045049984,-0.3816268
2150,1663945092224,-0.263886,0.051158458,-0.3816268
2151,1663945092224,-0.27121618,0.060932014,-0.38040513
2152,1663945092228,-0.27121618,0.07314896,-0.38040513
2153,1663945092228,-0.27121618,0.08047912,-0.38040513
2154,1663945092233,-0.27976805,0.09025268,-0.38284853
2155,1663945092233,-0.28343314,0.10735641,-0.388957
2156,1663945092238,-0.28465483,0.12079505,-0.3865136
2157,1663945092238,-0.27976805,0.11835165,-0.3852919
2158,1663945092243,-0.27121618,0.109799795,-0.38284853
2159,1663945092243,-0.26144263,0.10246963,-0.38040513
2160,1663945092248,-0.25289077,0.08903099,-0.38407022
2161,1663945092248,-0.24311721,0.08047912,-0.3852919
2162,1663945092253,-0.23212196,0.07070557,-0.38407022
2163,1663945092253,-0.2247918,0.06215371,-0.3877353
2164,1663945092258,-0.21623993,0.05971032,-0.3852919
2165,1663945092258,-0.21135315,0.052380152,-0.3865136
2166,1663945092263,-0.20524468,0.042606596,-0.37918344
2167,1663945092263,-0.20646638,0.03283304,-0.37918344
2168,1663945092268,-0.20768806,0.0193944,-0.37307495
2169,1663945092268,-0.21013145,0.0071774554,-0.3657448
2170,1663945092273,-0.21990502,-0.008704574,-0.3645231
2171,1663945092273,-0.2235701,-0.025808297,-0.36085802
2172,1663945092278,-0.23090026,-0.023364907,-0.35597125
2173,1663945092279,-0.23700874,-0.039246935,-0.35841462
2174,1663945092283,-0.24678229,-0.051463883,-0.35474956
2175,1663945092283,-0.25289077,-0.06001574,-0.34986275
2176,1663945092287,-0.25289077,-0.06734591,-0.3461977
2177,1663945092288,-0.25044736,-0.07101099,-0.3437543
2178,1663945092292,-0.2455606,-0.0697893,-0.34131092
2179,1663945092293,-0.23700874,-0.07101099,-0.33398074
2180,1663945092298,-0.2223484,-0.0697893,-0.32787228
2181,1663945092298,-0.20890976,-0.06490252,-0.316877
2182,1663945092303,-0.19180603,-0.0697893,-0.30588177
2183,1663945092303,-0.1771457,-0.07101099,-0.29122144
2184,1663945092308,-0.16126367,-0.068567604,-0.2753394
2185,1663945092308,-0.15149012,-0.068567604,-0.25701398
2186,1663945092312,-0.14415996,-0.06368083,-0.23746687
2187,1663945092313,-0.14049487,-0.062459134,-0.22158484
2188,1663945092318,-0.13438639,-0.062459134,-0.2081462
2189,1663945092318,-0.12583454,-0.06368083,-0.19715095
2190,1663945092322,-0.11972606,-0.066124216,-0.19104248
2191,1663945092322,-0.10628742,-0.06123744,-0.18004723
2192,1663945092327,-0.08429692,-0.062459134,-0.17638214
2193,1663945092328,-0.058641337,-0.06001574,-0.17516045
2194,1663945092332,-0.036650836,-0.05635066,-0.17760384
2195,1663945092332,-0.008551862,-0.055128966,-0.18371232
2196,1663945092337,0.01343864,-0.06001574,-0.19226417
2197,1663945092337,0.043981,-0.062459134,-0.19837265
2198,1663945092342,0.0684149,-0.07345438,-0.2093679
2199,1663945092343,0.0904054,-0.08933641,-0.21669807
2200,1663945092347,0.1111742,-0.11132691,-0.22280654
2201,1663945092347,0.12583454,-0.13942589,-0.228915
2202,1663945092353,0.14293826,-0.16996825,-0.2325801
2203,1663945092353,0.1575986,-0.21517095,-0.2301367
2204,1663945092357,0.17470232,-0.26403874,-0.22158484
2205,1663945092358,0.18814096,-0.3129065,-0.2093679
2206,1663945092362,0.20768806,-0.35688752,-0.19592926
2207,1663945092362,0.21990502,-0.40575528,-0.1861557
2208,1663945092367,0.23700874,-0.4485146,-0.18126893
2209,1663945092367,0.25289077,-0.48760882,-0.17882554
2210,1663945092372,0.27243787,-0.5205946,-0.18126893
2211,1663945092373,0.29565006,-0.54625016,-0.1885991
2212,1663945092377,0.32741413,-0.56579727,-0.19470756
2213,1663945092377,0.36039987,-0.5853444,-0.20448112
2214,1663945092382,0.40193748,-0.60855657,-0.21181129
2215,1663945092382,0.44836187,-0.6244386,-0.21791977
2216,1663945092387,0.5008947,-0.6452074,-0.22524993
2217,1663945092387,0.5522059,-0.65986776,-0.23380178
2218,1663945093416,-0.5204419,-0.21028417,0.09849912
2219,1663945093416,-0.5326588,-0.22738789,0.11682454
2220,1663945093416,-0.54487574,-0.2493784,0.13759334
2221,1663945093416,-0.555871,-0.2738123,0.14981028
2222,1663945093416,-0.56808794,-0.30435464,0.15714046
2223,1663945093416,-0.5790832,-0.3385621,0.16080554
2224,1663945093416,-0.5864134,-0.3776563,0.16080554
2225,1663945093416,-0.59252185,-0.41919392,0.15958385
2226,1663945093416,-0.5986303,-0.45828816,0.15347537
2227,1663945093417,-0.6010737,-0.4986041,0.14981028
2228,1663945093417,-0.6047388,-0.54502845,0.14125843
2229,1663945093422,-0.6096256,-0.58900946,0.13392825
2230,1663945093422,-0.61329067,-0.6293254,0.12781979
2231,1663945093427,-0.6218425,-0.6659762,0.11560284
2232,1663945093427,-0.6255076,-0.70140535,0.11193776
2233,1663945093432,-0.63161606,-0.72828263,0.107050985
2234,1663945093432,-0.6413896,-0.74905145,0.1021642
2235,1663945093436,-0.65116316,-0.77226365,0.10094251
2236,1663945093436,-0.6609367,-0.79669756,0.097277425
2237,1663945093441,-0.6768188,-0.81135786,0.09605573
2238,1663945093442,-0.69025743,-0.8211314,0.10094251
2239,1663945093446,-0.70125264,-0.83823514,0.1021642
2240,1663945093446,-0.7134696,-0.8480087,0.107050985
2241,1663945093452,-0.7305733,-0.8553389,0.11071607
2242,1663945093452,-0.74156857,-0.8651124,0.113159455
2243,1663945093456,-0.74889874,-0.8651124,0.12171131
2244,1663945093457,-0.7562289,-0.85900396,0.1253764
2245,1663945093462,-0.7635591,-0.8638907,0.12904148
2246,1663945093462,-0.77211094,-0.8565606,0.13392825
2247,1663945093467,-0.7769977,-0.85411716,0.13637166
2248,1663945093467,-0.7892147,-0.8504521,0.13759334
2249,1663945093472,-0.7904363,-0.8406785,0.14370182
2250,1663945093473,-0.79287976,-0.8419002,0.14248012
2251,1663945093476,-0.80387497,-0.83945686,0.14125843
2252,1663945093476,-0.8063184,-0.83579177,0.13881505
2253,1663945093481,-0.81609195,-0.83457005,0.13514996
2254,1663945093482,-0.8246438,-0.8296833,0.13148487
2255,1663945093488,-0.82708716,-0.8211314,0.1253764
2256,1663945093488,-0.83441734,-0.80769277,0.12048962
2257,1663945093492,-0.83197397,-0.7795938,0.11560284
2258,1663945093492,-0.83441734,-0.75638163,0.11438115
2259,1663945093496,-0.83563906,-0.7319477,0.10582929
2260,1663945093496,-0.83808243,-0.7111789,0.09972081
2261,1663945093502,-0.8405258,-0.6843016,0.09239065
2262,1663945093502,-0.84296924,-0.65986776,0.0801737
2263,1663945093506,-0.8454126,-0.63909894,0.06795676
2264,1663945093507,-0.8466343,-0.6232169,0.05451812
2265,1663945093511,-0.8490777,-0.6183301,0.037414394
2266,1663945093512,-0.8527428,-0.61099994,0.023975754
2267,1663945093516,-0.8466343,-0.58778775,0.009315421
2268,1663945093516,-0.83563906,-0.5621322,-0.00167983
2269,1663945093521,-0.8258655,-0.53892,-0.011453386
2270,1663945093521,-0.8099835,-0.5132644,-0.024892027
2271,1663945093526,-0.79654485,-0.49005222,-0.037108973
2272,1663945093526,-0.7806628,-0.47539186,-0.05054761
2273,1663945093531,-0.76478076,-0.4534014,-0.062764555
2274,1663945093531,-0.7537855,-0.44362783,-0.07742489
2275,1663945093536,-0.7379035,-0.43507597,-0.09208523
2276,1663945093537,-0.72935164,-0.42896748,-0.10552386
2277,1663945093541,-0.7146913,-0.42163733,-0.1201842
2278,1663945093541,-0.7073611,-0.41308546,-0.13362284
2279,1663945093545,-0.70125264,-0.4045336,-0.15439165
2280,1663945093546,-0.69025743,-0.39109495,-0.16783029
2281,1663945093551,-0.67926216,-0.3776563,-0.184934
2282,1663945093551,-0.671932,-0.36666107,-0.19837265
2283,1663945093555,-0.66704524,-0.35077903,-0.21425468
2284,1663945093555,-0.65849334,-0.3422272,-0.2325801
2285,1663945093561,-0.6487198,-0.3324536,-0.2509055
2286,1663945093561,-0.6413896,-0.32390177,-0.26678753
2287,1663945093565,-0.6340594,-0.31779328,-0.2777828
2288,1663945093566,-0.6267293,-0.31168482,-0.29610822
