,timestamp,acc_x,acc_y,acc_z
0,1663945086391,-0.44685963,-9.092128,3.5294135
1,1663945086392,-0.46839502,-9.118449,3.5605202
2,1663945086421,-0.47318068,-9.132806,3.6227336
3,1663945086421,-0.44207397,-9.166306,3.6993039
4,1663945086421,-0.4851448,-9.197711,3.76391
5,1663945086421,-0.48753762,-9.214461,3.7806597
6,1663945086422,-0.4779663,-9.226425,3.778267
7,1663945086422,-0.4851448,-9.207282,3.8261235
8,1663945086422,-0.5189434,-9.204889,3.8285162
9,1663945086422,-0.6026922,-9.192925,3.8811584
10,1663945086422,-0.69122666,-9.154342,3.9457645
11,1663945086422,-0.7893324,-9.166306,3.9457645
12,1663945086422,-0.8180462,-9.200104,3.9675992
13,1663945086422,-0.9951151,-9.12802,3.9050865
14,1663945086426,-1.0262218,-9.16152,4.0298123
15,1663945086426,-1.0214362,-9.171391,4.0848475
16,1663945086430,-1.0743774,-9.168997,4.072883
17,1663945086430,-1.1389836,-9.190533,4.065705
18,1663945086434,-1.2059826,-9.178569,4.0776687
19,1663945086434,-1.2442678,-9.163913,4.156632
20,1663945086440,-1.3064811,-9.16152,4.2020955
21,1663945086440,-1.2705889,-9.183354,4.099204
22,1663945086445,-1.2753744,-9.192925,4.046562
23,1663945086445,-1.2203395,-9.176176,4.046562
24,1663945086450,-1.2251252,-9.185747,4.0680976
25,1663945086451,-1.2083755,-9.185747,3.99392
26,1663945086456,-1.2658032,-9.18814,3.9771702
27,1663945086456,-1.2562319,-9.207282,3.9771702
28,1663945086460,-1.2059826,-9.200104,3.9604206
29,1663945086460,-1.2035898,-9.185747,3.9433718
30,1663945086465,-1.134198,-9.195318,3.9338005
31,1663945086465,-1.1030912,-9.226425,3.9050865
32,1663945086470,-1.0573285,-9.207282,3.897908
33,1663945086470,-1.0118649,-9.183354,3.8835511
34,1663945086475,-0.983151,-9.18814,3.926622
35,1663945086475,-0.9879367,-9.166306,3.900301
36,1663945086481,-0.9496515,-9.108877,3.8739798
37,1663945086481,-0.8994022,-9.0849495,3.8285162
38,1663945086486,-0.93290174,-9.029915,3.9026937
39,1663945086486,-0.8635099,-9.015557,3.952943
40,1663945086490,-0.8778668,-9.01795,4.0106697
41,1663945086490,-0.72711897,-8.989237,4.036991
42,1663945086495,-0.6840482,-8.986844,4.0513477
43,1663945086495,-0.6649056,-8.953344,4.0968113
44,1663945086501,-0.5404788,-8.953344,4.18056
45,1663945086501,-0.35593235,-8.953344,4.1638107
46,1663945086505,-0.20757736,-8.907881,4.1638107
47,1663945086505,-0.32482567,-8.907881,4.2858443
48,1663945086510,-0.39900318,-8.929416,4.3528433
49,1663945086510,-0.4325027,-8.955737,4.369593
50,1663945086514,-0.59312093,-8.903095,4.5302114
51,1663945086514,-0.51176494,-8.955737,4.4318066
52,1663945086520,-0.42053857,-9.010772,4.1925244
53,1663945086520,-0.4109673,-8.994022,4.1183467
54,1663945086525,-0.37746778,-8.989237,4.063312
55,1663945086525,-0.35353956,-8.967701,4.046562
56,1663945086529,-0.40618163,-8.94138,4.0417767
57,1663945086530,-0.4971089,-8.936594,4.039384
58,1663945086534,-0.55722857,-8.943773,3.9987056
59,1663945086534,-0.605085,-8.955737,4.025027
60,1663945086538,-0.7055836,-8.927023,4.0537405
61,1663945086539,-0.7582257,-8.962915,4.08724
62,1663945086545,-0.74626154,-8.962915,4.0968113
63,1663945086545,-0.7821539,-8.998808,4.1638107
64,1663945086551,-0.834796,-8.996415,4.261916
65,1663945086551,-0.9137592,-9.01795,4.3121657
66,1663945086555,-0.9664012,-9.041879,4.4007
67,1663945086555,-1.0621141,-9.046664,4.467699
68,1663945086559,-1.1653047,-8.994022,4.3384867
69,1663945086559,-1.160519,-9.106484,4.336094
70,1663945086564,-1.1724831,-9.0347,4.479663
71,1663945086564,-1.0959128,-9.094521,4.566104
72,1663945086568,-1.0573285,-9.132806,4.673781
73,1663945086568,-1.0334003,-9.142377,4.7216372
74,1663945086574,-1.0310074,-9.11127,4.781458
75,1663945086574,-1.0286146,-9.11127,4.822136
76,1663945086579,-1.0046864,-9.082557,4.8532424
77,1663945086579,-0.9975079,-9.058628,4.819743
78,1663945086585,-0.9807582,-9.027522,4.8125644
79,1663945086585,-0.9735797,-8.989237,4.846064
80,1663945086590,-1.0070792,-8.94138,4.8245287
81,1663945086590,-0.9496515,-8.893523,4.6689954
82,1663945086593,-0.9664012,-8.852845,4.5565324
83,1663945086593,-0.9879367,-8.836096,4.470092
84,1663945086598,-1.0597214,-8.800203,4.4150567
85,1663945086599,-1.1102697,-8.761918,4.3648076
86,1663945086603,-1.1653047,-8.740383,4.237988
87,1663945086603,-1.1557333,-8.7164545,4.156632
88,1663945086608,-1.2203395,-8.682955,4.1374893
89,1663945086608,-1.2323036,-8.718847,4.1087756
90,1663945086613,-1.2658032,-8.682955,4.10399
91,1663945086614,-1.2466606,-8.704491,4.139882
92,1663945086618,-1.2466606,-8.704491,4.1207395
93,1663945086618,-1.2251252,-8.740383,4.237988
94,1663945086623,-1.1892328,-8.778668,4.2427735
95,1663945086623,-1.1485549,-8.826525,4.2690945
96,1663945086628,-1.1653047,-8.917452,4.2595234
97,1663945086628,-1.174876,-8.86481,4.331308
98,1663945086633,-1.3256238,-8.888738,4.328915
99,1663945086633,-1.227518,-8.910274,4.3480577
100,1663945086638,-1.160519,-8.917452,4.5876393
101,1663945086638,-1.119841,-8.938987,4.6881375
102,1663945086643,-1.0190433,-8.95813,4.5804605
103,1663945086643,-0.9711869,-8.974879,4.5155554
104,1663945086647,-0.9711869,-8.955737,4.4892344
105,1663945086647,-0.9089735,-8.903095,4.5302114
106,1663945086653,-0.87308115,-8.912666,4.590032
107,1663945086653,-0.84436727,-8.89113,4.5948176
108,1663945086658,-0.7821539,-8.898309,4.6283174
109,1663945086658,-0.7797611,-8.900702,4.582854
110,1663945086662,-0.767797,-8.874381,4.558925
111,1663945086662,-0.80847496,-8.836096,4.601996
112,1663945086667,-0.7725826,-8.84806,4.5469613
113,1663945086667,-0.77018976,-8.8289175,4.51077
114,1663945086673,-0.8180462,-8.790632,4.4222355
115,1663945086673,-0.8060821,-8.783454,4.345665
116,1663945086677,-0.8539386,-8.781061,4.3097725
117,1663945086678,-0.8491529,-8.785847,4.288237
118,1663945086686,-0.8706883,-8.75474,4.2906303
119,1663945086686,-0.91854477,-8.714062,4.328915
120,1663945086687,-0.9281161,-8.6757765,4.343272
121,1663945086687,-0.901795,-8.649456,4.371986
122,1663945086693,-0.8850453,-8.618349,4.395914
123,1663945086693,-0.85154575,-8.582157,4.4007
124,1663945086698,-0.80847496,-8.529515,4.429414
125,1663945086698,-0.7965108,-8.503195,4.436592
126,1663945086702,-0.77736825,-8.462517,4.4150567
127,1663945086702,-0.7606185,-8.417053,4.3265224
128,1663945086707,-0.72472614,-8.357232,4.295416
129,1663945086707,-0.67447686,-8.330911,4.2308097
130,1663945086710,-0.7007979,-8.297412,4.2020955
131,1663945086714,-0.68883383,-8.285447,4.1757746
132,1663945086714,-0.7223333,-8.335697,4.132704
133,1663945086719,-0.8778668,-8.187342,4.1111684
134,1663945086719,-0.8994022,-8.172985,4.2092743
135,1663945086724,-0.8036893,-8.239984,4.3983073
136,1663945086724,-0.7749754,-8.292626,4.518247
137,1663945086729,-0.8036893,-8.347661,4.6498528
138,1663945086729,-0.88983095,-8.3835535,4.7048874
139,1663945086734,-0.9281161,-8.39791,4.731209
140,1663945086734,-0.9520443,-8.409874,4.72403
141,1663945086739,-0.9951151,-8.436195,4.683352
142,1663945086739,-0.99990076,-8.421839,4.6354957
143,1663945086747,-0.95443714,-8.407481,4.5131626
144,1663945086747,-0.9376874,-8.407481,4.429414
145,1663945086749,-0.97836536,-8.417053,4.4007
146,1663945086749,-0.9592228,-8.400303,4.3552365
147,1663945086755,-0.95682997,-8.412267,4.302594
148,1663945086755,-0.9879367,-8.36441,4.288237
149,1663945086759,-0.9807582,-8.335697,4.252345
150,1663945086759,-0.983151,-8.28784,4.2260237
151,1663945086764,-0.99032944,-8.268698,4.2068815
152,1663945086764,-1.038186,-8.22802,4.2092743
153,1663945086768,-1.0334003,-8.220841,4.2595234
154,1663945086768,-1.0214362,-8.22802,4.293023
155,1663945086773,-1.0405787,-8.220841,4.333701
156,1663945086773,-1.1030912,-8.239984,4.3480577
157,1663945086778,-1.1916257,-8.261519,4.182953
158,1663945086779,-1.1246266,-8.0868435,4.371986
159,1663945086784,-0.9975079,-8.137093,4.6235313
160,1663945086784,-0.8563314,-8.16102,4.616353
161,1663945086788,-0.84436727,-8.177771,4.6283174
162,1663945086788,-0.8060821,-8.192127,4.6259246
163,1663945086793,-0.7390831,-8.208878,4.633103
164,1663945086793,-0.767797,-8.189734,4.6091747
165,1663945086799,-0.78693956,-8.163414,4.5684967
166,1663945086799,-0.7965108,-8.149056,4.5541396
167,1663945086803,-0.82283187,-8.120343,4.5278187
168,1663945086803,-0.8706883,-8.098807,4.5373898
169,1663945086808,-0.8850453,-8.096415,4.599603
170,1663945086808,-0.9089735,-8.115557,4.5852466
171,1663945086814,-0.9400802,-8.110771,4.6235313
172,1663945086814,-0.9305089,-8.125129,4.604389
173,1663945086819,-0.91615194,-8.094022,4.5035915
174,1663945086820,-0.942473,-8.082058,4.4629135
175,1663945086824,-0.98554385,-8.089236,4.4485564
176,1663945086824,-0.97597253,-8.105986,4.4078784
177,1663945086829,-0.9711869,-8.062915,4.410271
178,1663945086829,-1.0070792,-8.050951,4.438985
179,1663945086833,-1.0671989,-8.036295,4.49402
180,1663945086833,-1.079163,-8.031509,4.532604
181,1663945086839,-1.2705889,-7.9908314,4.4605207
182,1663945086839,-1.253839,-8.036295,4.5445685
183,1663945086843,-1.2610176,-8.103593,4.6642094
184,1663945086844,-1.2394822,-8.137093,4.604389
185,1663945086848,-1.1629118,-8.225627,4.6498528
186,1663945086848,-1.1126626,-8.275876,4.7192445
187,1663945086853,-1.1174482,-8.32134,4.7431726
188,1663945086853,-1.0863415,-8.33809,4.779065
189,1663945086858,-1.1006985,-8.326125,4.767101
190,1663945086858,-1.0621141,-8.299805,4.738387
191,1663945086864,-1.0429716,-8.275876,4.7216372
192,1663945086864,-1.0214362,-8.261519,4.685745
193,1663945086868,-1.134198,-8.201698,4.5613184
194,1663945086869,-0.9879367,-8.204091,4.6283174
195,1663945086872,-0.9209376,-8.189734,4.7862434
196,1663945086873,-0.8324032,-8.21127,4.838886
197,1663945086878,-0.75344,-8.216056,4.860421
198,1663945086878,-0.6984051,-8.206485,4.858028
199,1663945086882,-0.6242276,-8.177771,4.7718863
200,1663945086882,-0.5476573,-8.177771,4.714459
201,1663945086904,-0.49232325,-8.1275215,4.685745
202,1663945086904,-0.49471608,-8.1179495,4.6618166
203,1663945086904,-0.5189434,-8.0868435,4.633103
204,1663945086904,-0.55483574,-8.062915,4.616353
205,1663945086904,-0.5620142,-8.074879,4.64746
206,1663945086904,-0.6266204,-8.084451,4.6642094
207,1663945086904,-0.64576304,-8.096415,4.714459
208,1663945086904,-0.7007979,-8.115557,4.7192445
209,1663945086907,-0.73429745,-8.151449,4.671388
210,1663945086907,-0.7390831,-8.21127,4.685745
211,1663945086912,-0.74626154,-8.239984,4.731209
212,1663945086912,-0.75583285,-8.285447,4.764708
213,1663945086917,-0.7749754,-8.32134,4.822136
214,1663945086917,-0.85154575,-8.326125,4.8508496
215,1663945086922,-0.82283187,-8.371589,5.027919
216,1663945086922,-0.77018976,-8.390732,5.1646085
217,1663945086927,-0.7893324,-8.426624,5.2220364
218,1663945086927,-0.74147594,-8.43141,5.241179
219,1663945086931,-0.7390831,-8.407481,5.2435718
220,1663945086931,-0.7319046,-8.409874,5.1143594
221,1663945086936,-0.70319074,-8.409874,5.0135617
222,1663945086936,-0.74626154,-8.393125,4.939384
223,1663945086941,-0.76540416,-8.393125,4.879564
224,1663945086941,-0.8108678,-8.3835535,4.807779
225,1663945086946,-0.85872424,-8.376375,4.7359943
226,1663945086946,-0.8970094,-8.395517,4.671388
227,1663945086951,-0.9807582,-8.388339,4.6450667
228,1663945086951,-1.0357931,-8.409874,4.5876393
229,1663945086956,-1.0839486,-8.371589,4.5206404
230,1663945086956,-1.0719845,-8.424232,4.5708895
231,1663945086961,-1.0621141,-8.433803,4.578068
232,1663945086961,-1.1294123,-8.436195,4.590032
233,1663945086967,-1.134198,-8.438588,4.673781
234,1663945086967,-1.1006985,-8.498408,4.7838507
235,1663945086971,-1.0935199,-8.536694,4.872385
236,1663945086971,-1.0815558,-8.5678005,4.913063
237,1663945086977,-1.1078769,-8.608778,4.939384
238,1663945086977,-1.1796615,-8.62792,4.898706
239,1663945086982,-1.1437693,-8.6757765,4.898706
240,1663945086982,-1.1581261,-8.697312,4.968098
241,1663945086986,-1.1892328,-8.711669,4.9513483
242,1663945086987,-1.2370893,-8.730812,4.9728837
243,1663945086992,-1.3519448,-8.764311,4.9489555
244,1663945086992,-1.442872,-8.778668,4.946563
245,1663945086997,-1.5170496,-8.793025,4.956134
246,1663945086997,-1.5864414,-8.783454,4.956134
247,1663945087001,-1.6585252,-8.769096,5.0015974
248,1663945087001,-1.675275,-8.804989,5.0709896
249,1663945087007,-1.7542381,-8.766704,5.090431
250,1663945087007,-1.7853448,-8.747561,5.1215377
251,1663945087011,-1.8140587,-8.730812,5.234
252,1663945087011,-1.809273,-8.759525,5.3392844
253,1663945087016,-1.8308084,-8.795418,5.4110694
254,1663945087016,-1.8332013,-8.845667,5.6168523
255,1663945087020,-1.7638094,-8.900702,5.6889358
256,1663945087021,-1.675275,-8.950952,5.7200427
257,1663945087026,-1.6274185,-8.984451,5.7870417
258,1663945087026,-1.5529419,-9.008379,5.851648
259,1663945087031,-1.4955142,-9.020343,5.9521465
260,1663945087031,-1.5170496,-9.049057,6.0622163
261,1663945087035,-1.4955142,-9.065806,6.081359
262,1663945087036,-1.4835501,-9.118449,6.134001
263,1663945087040,-1.4524434,-9.178569,6.1770716
264,1663945087041,-1.4093726,-9.267103,6.134001
265,1663945087046,-1.3782659,-9.334102,6.122037
266,1663945087046,-1.3375878,-9.436994,6.1124654
267,1663945087050,-1.3160524,-9.549456,6.07418
268,1663945087050,-1.2873386,-9.637991,6.0430737
269,1663945087055,-1.2921243,-9.760324,5.9377894
270,1663945087055,-1.2921243,-9.834501,5.832505
271,1663945087060,-1.2993027,-9.963714,5.7583275
272,1663945087060,-1.2442678,-10.040284,5.7009
273,1663945087065,-1.1916257,-10.1288185,5.6240306
274,1663945087065,-1.1006985,-10.210175,5.497211
275,1663945087070,-1.0405787,-10.2723875,5.365606
276,1663945087070,-0.92572325,-10.303793,5.1885366
277,1663945087075,-0.8132606,-10.322936,5.0183473
278,1663945087075,-0.7055836,-10.303793,4.805386
279,1663945087080,-0.6026922,-10.294222,4.63071
280,1663945087085,-0.44925246,-10.291531,4.453342
281,1663945087085,-0.35832518,-10.260424,4.3983073
282,1663945087085,-0.212363,-10.246066,4.2762733
283,1663945087090,-0.10229317,-10.236495,4.19731
284,1663945087090,-0.030508488,-10.219746,4.293023
285,1663945087095,0.06550352,-10.202995,4.2164526
286,1663945087095,0.1061815,-10.219746,4.139882
287,1663945087100,0.067896344,-10.224531,4.18056
288,1663945087100,0.063110694,-10.262816,4.2834516
289,1663945087105,0.034097724,-10.313365,4.3528433
290,1663945087105,0.005383851,-10.375578,4.376772
291,1663945087110,-0.071186475,-10.425827,4.386343
292,1663945087111,-0.109471634,-10.47847,4.3935213
293,1663945087115,-0.17407785,-10.519148,4.4461637
294,1663945087115,-0.29850462,-10.509576,4.5445685
295,1663945087121,-0.38703907,-10.526326,4.4198427
296,1663945087121,-0.4755735,-10.483255,4.410271
297,1663945087126,-0.5141578,-10.468898,4.484449
298,1663945087126,-0.605085,-10.418649,4.5804605
299,1663945087130,-0.64576304,-10.370792,4.712066
300,1663945087130,-0.67208403,-10.315758,4.781458
301,1663945087135,-0.6409774,-10.246066,4.8652067
302,1663945087135,-0.5883353,-10.169497,4.913063
303,1663945087140,-0.5739783,-10.013963,4.980062
304,1663945087140,-0.5476573,-9.889536,5.02074
305,1663945087145,-0.48275197,-9.745967,5.044668
306,1663945087145,-0.44207397,-9.566206,4.929813
307,1663945087150,-0.401396,-9.389137,4.8245287
308,1663945087151,-0.360718,-9.202497,4.6953163
309,1663945087155,-0.3487539,-8.9724865,4.5206404
310,1663945087155,-0.28175488,-8.735598,4.2451663
311,1663945087160,-0.1381855,-8.460124,3.9795632
312,1663945087160,0.00059820566,-8.249556,3.7256248
313,1663945087165,0.026919255,-8.072486,3.4719856
314,1663945087165,0.07986046,-7.8687973,3.2036905
315,1663945087169,0.15882361,-7.77787,2.9213374
316,1663945087169,0.2425724,-7.780263,2.7655048
317,1663945087176,0.46989053,-7.725228,2.5836504
318,1663945087176,0.5943173,-7.6462646,2.3874388
319,1663945087180,0.70229346,-7.631908,2.2435703
320,1663945087180,0.8219346,-7.624729,2.140679
321,1663945087190,1.0085747,-7.6534433,1.9899311
322,1663945087190,1.0516455,-7.624729,1.8678972
323,1663945087190,1.032503,-7.624729,1.7362919
324,1663945087190,1.0420742,-7.665407,1.6115661
325,1663945087195,1.0683953,-7.6941214,1.5086746
326,1663945087195,1.0731809,-7.7419777,1.4416757
327,1663945087200,1.0205388,-7.789834,1.3674982
328,1663945087200,1.0420742,-7.90469,1.3938192
329,1663945087204,0.92243314,-7.96451,1.2095718
330,1663945087204,0.76689965,-8.0677,1.2669996
331,1663945087209,0.61106706,-8.189734,1.4177474
332,1663945087210,0.41724846,-8.28784,1.5756737
333,1663945087214,0.24496523,-8.390732,1.7147565
334,1663945087214,0.09661021,-8.5271225,1.8511474
335,1663945087219,-0.14536397,-8.637491,1.9444675
336,1663945087219,-0.32482567,-8.764311,2.047359
337,1663945087224,-0.5093721,-8.912666,2.0617158
338,1663945087224,-0.7175477,-9.072986,2.0688944
339,1663945087229,-0.95682997,-9.197711,2.0401804
340,1663945087229,-1.1413764,-9.331709,2.0210378
341,1663945087233,-1.3854443,-9.499207,1.966003
342,1663945087233,-1.5314065,-9.736395,2.0617158
343,1663945087238,-1.6896319,-9.784252,1.8487546
344,1663945087239,-1.849951,-9.879965,1.7913269
345,1663945087244,-1.9336998,-10.028319,1.9085752
346,1663945087244,-2.024627,-10.114461,1.6737795
347,1663945087248,-2.1418753,-10.191031,1.6546369
348,1663945087248,-2.2498515,-10.2317095,1.7024933
349,1663945087253,-2.3623142,-10.289138,1.7817556
350,1663945087253,-2.417349,-10.3349,1.8104694
351,1663945087258,-2.3862424,-10.397114,1.8391833
352,1663945087258,-2.3383858,-10.526326,2.0162523
353,1663945087263,-2.2091734,-10.488041,1.8774685
354,1663945087263,-2.1658037,-10.399507,1.7506489
355,1663945087268,-2.1634107,-10.320543,1.7096717
356,1663945087268,-2.1490538,-10.150353,1.8224336
357,1663945087273,-2.268994,-9.5709915,1.7147565
358,1663945087274,-1.9552352,-9.846465,1.4871392
359,1663945087278,-1.6704893,-9.896714,1.0561321
360,1663945087279,-1.4835501,-9.894321,0.733101
361,1663945087283,-1.402194,-9.793823,0.6158527
362,1663945087283,-1.3950156,-9.59492,0.54376894
363,1663945087288,-1.4189439,-9.422636,0.52941203
364,1663945087288,-1.4237294,-9.286245,0.44805604
365,1663945087294,-1.3304094,-9.231211,0.4001996
366,1663945087294,-1.2514462,-9.22164,0.46002015
367,1663945087298,-1.2251252,-9.396316,0.6517451
368,1663945087298,-1.3710874,-9.511171,0.5198407
369,1663945087303,-1.5864414,-9.269496,0.49830532
370,1663945087303,-2.0174487,-8.620742,0.4959125
371,1663945087308,-1.8882362,-8.824132,0.18245272
372,1663945087308,-1.6393826,-9.01795,0.11306087
373,1663945087313,-1.5050855,-9.12802,0.05802595
374,1663945087313,-1.4787644,-9.190533,0.098703936
375,1663945087318,-1.5170496,-9.224032,0.21595225
376,1663945087318,-1.5361922,-9.319745,0.32362926
377,1663945087323,-1.5864414,-9.405887,0.3930211
378,1663945087323,-1.6393826,-9.503992,0.48873404
379,1663945087327,-1.7255242,-9.616455,0.52223355
380,1663945087328,-1.7542381,-9.709775,0.6086743
381,1663945087333,-1.7542381,-9.815358,0.6230312
382,1663945087333,-1.7614166,-9.899107,0.64217377
383,1663945087337,-1.7518452,-9.942178,0.66370916
384,1663945087337,-1.7470596,-10.01157,0.6900302
385,1663945087342,-1.768595,-10.047462,0.6828518
386,1663945087342,-1.7614166,-10.114461,0.6972087
387,1663945087347,-1.6103697,-10.241281,0.814457
388,1663945087347,-1.7374884,-10.162318,0.5772685
389,1663945087353,-1.8427725,-10.114461,0.5605187
390,1663945087353,-1.9336998,-10.080962,0.66370916
391,1663945087358,-2.0676978,-9.728918,0.8862417
392,1663945087358,-1.9504496,-10.013963,0.7091728
393,1663945087362,-1.7255242,-10.250853,0.6373881
394,1663945087363,-1.646561,-10.349257,0.56530434
395,1663945087367,-1.6992031,-10.449756,0.57487565
396,1663945087368,-1.9265213,-10.569397,0.70199436
397,1663945087373,-1.8427725,-10.693824,0.9029915
398,1663945087373,-1.7542381,-10.5741825,0.6948159
399,1663945087377,-1.7853448,-10.519148,0.5341976
400,1663945087377,-1.7470596,-10.535897,0.51266223
401,1663945087382,-1.6079768,-10.57179,0.52941203
402,1663945087382,-1.4404793,-10.612468,0.5844469
403,1663945087390,-1.1653047,-10.734502,0.7713862
404,1663945087390,-1.1772687,-10.586146,0.57009
405,1663945087418,-1.2394822,-10.459327,0.54376894
406,1663945087419,-1.2203395,-10.382756,0.6828518
407,1663945087419,-1.1653047,-10.377971,0.75463647
408,1663945087419,-1.0887343,-10.327722,0.82642114
409,1663945087419,-1.0334003,-10.279566,0.8431709
410,1663945087419,-1.0262218,-10.207782,0.881456
411,1663945087419,-0.98554385,-10.131211,0.9077771
412,1663945087419,-0.97836536,-10.061819,0.9029915
413,1663945087419,-0.9448658,-10.004392,0.91495556
414,1663945087419,-0.9400802,-9.980463,0.9269197
415,1663945087420,-0.9400802,-9.9038925,0.95802635
416,1663945087420,-0.96400845,-9.84168,0.9819546
417,1663945087421,-0.97836536,-9.762716,0.94366944
418,1663945087421,-0.9065807,-9.84168,1.0465608
419,1663945087427,-0.8180462,-9.812965,1.0680962
420,1663945087427,-1.0887343,-9.5303135,0.66131634
421,1663945087431,-1.2346965,-9.4178505,0.6589235
422,1663945087431,-1.2610176,-9.393923,0.7187441
423,1663945087436,-1.2562319,-9.326923,0.6326025
424,1663945087436,-1.3280165,-9.204889,0.47198427
425,1663945087441,-1.3782659,-9.149555,0.35234314
426,1663945087441,-1.3734802,-9.089735,0.29491538
427,1663945087445,-1.3950156,-9.056235,0.18005991
428,1663945087445,-1.3806586,-9.053843,0.1274178
429,1663945087452,-1.3615161,-9.046664,0.0026919255
430,1663945087452,-1.3591232,-9.022736,-0.05712864
431,1663945087455,-1.3663018,-8.986844,-0.14087744
432,1663945087455,-1.4285151,-8.974879,-0.22701904
433,1663945087461,-1.4691931,-8.977272,-0.2748755
434,1663945087461,-1.4979069,-8.99163,-0.32033914
435,1663945087466,-1.5457634,-8.996415,-0.3155535
436,1663945087466,-1.5816557,-9.005986,-0.2748755
437,1663945087472,-1.6513467,-9.0347,-0.21266212
438,1663945087473,-1.4261223,-9.319745,0.17288144
439,1663945087476,-1.5481563,-9.195318,-0.16480567
440,1663945087476,-1.7303098,-9.137591,-0.24376881
441,1663945087480,-1.8762721,-9.118449,-0.200698
442,1663945087480,-1.9384855,-9.11127,-0.18155542
443,1663945087485,-1.9648064,-9.132806,-0.12173485
444,1663945087485,-1.9648064,-9.137591,-0.07148558
445,1663945087491,-1.9456639,-9.168997,-0.035593238
446,1663945087491,-1.9384855,-9.231211,0.029312078
447,1663945087495,-1.8906289,-9.2742815,0.1058824
448,1663945087495,-1.8571295,-9.331709,0.18723837
449,1663945087500,-1.8475581,-9.348459,0.2542374
450,1663945087500,-1.7877376,-9.4585285,0.4121637
451,1663945087505,-1.6680965,-9.527921,0.64217377
452,1663945087505,-1.7733806,-9.542277,0.46959144
453,1663945087511,-1.8978075,-9.489635,0.45044887
454,1663945087511,-1.9097716,-9.475279,0.51266223
455,1663945087515,-1.8810577,-9.492028,0.5485546
456,1663945087515,-1.9480567,-9.468101,0.49112684
457,1663945087520,-1.9839491,-9.432208,0.51505506
458,1663945087521,-1.9624137,-9.446565,0.6469594
459,1663945087525,-1.9408783,-9.45135,0.6756733
460,1663945087525,-1.9097716,-9.453743,0.71395844
461,1663945087530,-1.91695,-9.460921,0.74506515
462,1663945087531,-1.9025931,-9.460921,0.73549384
463,1663945087535,-1.849951,-9.51835,0.8024929
464,1663945087535,-1.8523438,-9.496814,0.7618149
465,1663945087541,-1.8284156,-9.503992,0.72352976
466,1663945087541,-1.849951,-9.492028,0.68524456
467,1663945087545,-1.9025931,-9.480064,0.6230312
468,1663945087546,-1.864308,-9.556635,0.7689934
469,1663945087551,-1.8547367,-9.494421,0.6756733
470,1663945087551,-1.8978075,-9.463314,0.6014958
471,1663945087555,-1.9528424,-9.439386,0.5772685
472,1663945087555,-1.9360926,-9.429815,0.6134599
473,1663945087560,-1.91695,-9.480064,0.6972087
474,1663945087560,-1.9360926,-9.508778,0.62781686
475,1663945087565,-1.943271,-9.515957,0.666102
476,1663945087565,-1.9360926,-9.556635,0.7091728
477,1663945087571,-1.9767706,-9.592526,0.7091728
478,1663945087571,-1.9695921,-9.618848,0.6732805
479,1663945087575,-1.9265213,-9.575777,0.64217377
480,1663945087575,-1.9528424,-9.621241,0.69960153
481,1663945087580,-1.9791634,-9.647562,0.7785647
482,1663945087580,-1.9839491,-9.661919,0.73070824
483,1663945087586,-1.8858434,-9.709775,0.8383852
484,1663945087586,-1.768595,-9.72174,1.0800604
485,1663945087590,-1.7997017,-9.726525,0.8790632
486,1663945087590,-1.9241285,-9.68824,0.77617186
487,1663945087595,-2.01027,-9.628419,0.82881397
488,1663945087595,-2.0868404,-9.599706,0.78813595
489,1663945087600,-2.1490538,-9.573384,0.80488575
490,1663945087600,-2.1442683,-9.539885,0.85034937
491,1663945087604,-2.0892332,-9.51835,0.90059865
492,1663945087605,-2.0581267,-9.515957,0.9340981
493,1663945087609,-2.0054846,-9.494421,0.96520483
494,1663945087611,-1.9791634,-9.465707,0.9340981
495,1663945087614,-1.943271,-9.432208,0.85034937
496,1663945087614,-2.0748763,-9.527921,1.0417751
497,1663945087620,-2.175375,-9.511171,1.1015958
498,1663945087620,-2.1996021,-9.487243,1.1063814
499,1663945087631,-2.1948166,-9.475279,1.1039885
500,1663945087631,-2.2498515,-9.4585285,1.1087742
501,1663945087631,-2.2474587,-9.441779,1.1207383
502,1663945087631,-2.1394825,-9.547063,1.5421742
503,1663945087635,-2.1418753,-9.446565,1.1422737
504,1663945087636,-2.1011975,-9.312567,0.9269197
505,1663945087640,-2.1586251,-9.180962,0.599103
506,1663945087640,-2.4029922,-9.190533,0.7809575
507,1663945087644,-2.5202405,-9.120842,0.7857431
508,1663945087644,-2.5082762,-9.061021,0.8359924
509,1663945087650,-2.4819553,-9.044271,0.8766704
510,1663945087650,-2.4029922,-9.075378,0.94606227
511,1663945087654,-2.3455644,-9.080164,0.9771689
512,1663945087654,-2.3168504,-9.1256275,1.00349
513,1663945087659,-2.2905295,-9.14477,0.97956175
514,1663945087659,-2.2307088,-9.151948,0.9556335
515,1663945087663,-2.2139592,-9.137591,0.881456
516,1663945087664,-2.0748763,-9.008379,0.66370916
517,1663945087669,-2.1299112,-9.113664,0.7689934
518,1663945087669,-2.187339,-9.240782,0.92213404
519,1663945087674,-2.1681964,-9.271889,1.0130613
520,1663945087674,-2.1586251,-9.295816,1.0633105
521,1663945087678,-2.0294127,-9.448957,1.4416757
522,1663945087679,-1.986342,-9.35803,1.0489537
523,1663945087684,-2.0557337,-9.317352,0.7713862
524,1663945087684,-2.0365913,-9.219247,0.55812585
525,1663945087691,-2.02702,-9.147162,0.36670008
526,1663945087691,-2.1514466,-9.219247,0.5943173
527,1663945087693,-2.216352,-9.257532,0.7259226
528,1663945087694,-2.175375,-9.2742815,0.80488575
529,1663945087699,-2.0700908,-9.302996,0.7857431
530,1663945087699,-2.0341983,-9.331709,0.7689934
531,1663945087703,-1.9767706,-9.329316,0.733101
532,1663945087703,-1.8810577,-9.360423,0.69960153
533,1663945087709,-1.8403797,-9.346066,0.66370916
534,1663945087709,-1.7877376,-9.353245,0.6086743
535,1663945087711,-1.7614166,-9.348459,0.53180486
536,1663945087715,-1.6944175,-9.350852,0.46002015
537,1663945087715,-1.4931214,-9.267103,0.2853441
538,1663945087720,-1.4620147,-9.37478,0.23988047
539,1663945087720,-1.5625132,-9.551849,0.4648058
540,1663945087725,-1.5744773,-9.580563,0.5102694
541,1663945087725,-1.4979069,-9.597313,0.49112684
542,1663945087730,-1.4045869,-9.633204,0.45044887
543,1663945087730,-1.3686945,-9.678668,0.3906283
544,1663945087735,-1.3423735,-9.652348,0.32841492
545,1663945087735,-1.3615161,-9.661919,0.2757728
546,1663945087740,-1.3830515,-9.659526,0.2111666
547,1663945087740,-1.4356936,-9.652348,0.14895321
548,1663945087745,-1.4620147,-9.657133,0.06520442
549,1663945087745,-1.4069797,-9.582955,-0.0044865427
550,1663945087751,-1.3591232,-9.554242,-0.25812575
551,1663945087751,-1.5984055,-9.753145,0.07477571
552,1663945087755,-1.7398812,-9.769895,0.060418773
553,1663945087755,-1.8738792,-9.803394,0.12263216
554,1663945087760,-1.9384855,-9.79143,0.15373886
555,1663945087760,-1.9384855,-9.79143,0.12263216
556,1663945087765,-1.849951,-9.793823,0.093918286
557,1663945087766,-1.794916,-9.839287,0.06759724
558,1663945087770,-1.6944175,-9.8321085,-0.014057833
559,1663945087770,-1.5984055,-9.8632145,-0.08344969
560,1663945087775,-1.6968104,-9.980463,0.06520442
561,1663945087775,-1.7207385,-10.025927,0.12502499
562,1663945087780,-1.7374884,-10.1288185,0.18484555
563,1663945087780,-1.7614166,-10.202995,0.2853441
564,1663945087786,-1.7183458,-10.234102,0.29012975
565,1663945087786,-1.634597,-10.24846,0.23030917
566,1663945087790,-1.6944175,-10.330114,0.25902304
567,1663945087791,-1.7781663,-10.392328,0.32123643
568,1663945087795,-1.8595223,-10.358829,0.28295127
569,1663945087795,-1.8834505,-10.327722,0.19680966
570,1663945087800,-1.8714864,-10.354043,0.2015953
571,1663945087801,-1.998306,-10.440185,0.23988047
572,1663945087805,-1.986342,-10.681859,0.7426723
573,1663945087805,-2.228316,-10.3899355,0.18245272
574,1663945087810,-2.3838496,-10.207782,-0.033200413
575,1663945087810,-2.3886352,-10.078569,-0.10977074
576,1663945087814,-2.2809582,-10.004392,-0.08105687
577,1663945087815,-2.2354946,-9.987641,0.007477571
578,1663945087819,-2.1705892,-9.994821,0.15134603
579,1663945087820,-2.117947,-9.9756775,0.24945176
580,1663945087825,-2.0413768,-9.985249,0.40737805
581,1663945087825,-2.024627,-9.956535,0.5198407
582,1663945087830,-1.9336998,-9.946963,0.5246264
583,1663945087830,-1.8188443,-9.95175,0.503091
584,1663945087837,-1.7566309,-9.973285,0.51266223
585,1663945087837,-1.6393826,-9.954143,0.51266223
586,1663945087840,-1.5170496,-9.970892,0.4648058
587,1663945087840,-1.4333007,-10.023534,0.4408776
588,1663945087846,-1.4069797,-10.107283,0.48155555
589,1663945087846,-1.3375878,-10.150353,0.4743771
590,1663945087854,-1.2849457,-10.205389,0.43848476
591,1663945087854,-1.2729816,-10.281959,0.43848476
592,1663945087855,-1.2466606,-10.380363,0.4432704
593,1663945087855,-1.2370893,-10.459327,0.45044887
594,1663945087859,-1.2227324,-10.555039,0.4408776
595,1663945087859,-1.1988041,-10.64836,0.42891344
596,1663945087865,-1.1509477,-10.751251,0.38344982
597,1663945087865,-1.119841,-10.811071,0.23509483
598,1663945087869,-1.2107682,-10.962119,0.28055847
599,1663945087869,-1.3280165,-11.110474,0.34277186
600,1663945087873,-1.4644074,-11.199008,0.29252258
601,1663945087874,-1.5194423,-11.321042,0.28773692
602,1663945087878,-1.605584,-11.39522,0.2542374
603,1663945087879,-1.7135601,-11.493625,0.25184458
604,1663945087883,-1.7518452,-11.596516,0.25663024
605,1663945087883,-1.8547367,-11.682657,0.21355942
606,1663945087890,-1.7111673,-11.902797,0.23748764
607,1663945087918,-1.6175481,-12.005987,0.27816564
608,1663945087918,-1.5098711,-12.123236,0.3786642
609,1663945087919,-1.3136597,-12.178271,0.40737805
610,1663945087919,-1.3639089,-12.336197,0.66370916
611,1663945087919,-1.3447664,-12.455838,0.895813
612,1663945087919,-1.3950156,-12.563814,1.1350952
613,1663945087919,-1.4811572,-12.642777,1.3052847
614,1663945087919,-1.5481563,-12.640385,1.3411771
615,1663945087919,-1.5577276,-12.602099,1.2957134
616,1663945087919,-1.538585,-12.52523,1.180858
617,1663945087919,-1.5314065,-12.429517,1.0202397
618,1663945087919,-1.564906,-12.357733,0.9125627
619,1663945087925,-1.6247265,-12.269198,0.7785647
620,1663945087925,-1.6920247,-12.1663065,0.6876374
621,1663945087928,-1.8571295,-12.087343,0.599103
622,1663945087928,-1.7877376,-11.996416,0.503091
623,1663945087933,-1.768595,-11.926725,0.41694933
624,1663945087933,-1.7709879,-11.852548,0.35712877
625,1663945087937,-1.82363,-11.759228,0.33320054
626,1663945087937,-1.8212371,-11.682657,0.33080772
627,1663945087942,-1.7853448,-11.596516,0.3475575
628,1663945087942,-1.6103697,-11.402398,0.25663024
629,1663945087948,-1.308874,-11.153544,0.04127619
630,1663945087948,-1.2251252,-11.086546,0.29012975
631,1663945087953,-1.4093726,-11.153544,0.70199436
632,1663945087953,-1.5529419,-11.165508,1.0369896
633,1663945087958,-1.6776677,-11.17508,1.2526426
634,1663945087958,-1.7973089,-11.182259,1.4033905
635,1663945087962,-1.8906289,-11.167901,1.451247
636,1663945087962,-1.9791634,-11.201401,1.4536397
637,1663945087967,-2.0605195,-11.242079,1.4727824
638,1663945087967,-2.0868404,-11.330613,1.4440684
639,1663945087972,-2.0222342,-11.505589,1.2837493
640,1663945087972,-2.0437696,-11.309078,1.180858
641,1663945087977,-1.9624137,-11.282757,1.1015958
642,1663945087977,-2.0078773,-11.330613,1.1422737
643,1663945087982,-2.1107686,-11.368898,1.1856437
644,1663945087982,-2.3431716,-11.340185,1.3100704
645,1663945087988,-2.283351,-11.450554,1.1593226
646,1663945087988,-2.3958137,-11.524732,1.0800604
647,1663945087992,-2.4987051,-11.618052,1.015454
648,1663945087992,-2.4795625,-11.773584,0.80967134
649,1663945087997,-2.5513473,-11.694622,0.75702924
650,1663945087997,-2.6446671,-11.6084795,0.75942206
651,1663945088002,-2.5489542,-11.594123,0.75702924
652,1663945088002,-2.3479571,-11.5366955,0.747458
653,1663945088007,-2.187339,-11.548659,0.75224364
654,1663945088007,-2.0198414,-11.539088,0.77377903
655,1663945088012,-1.8978075,-11.567802,0.8072785
656,1663945088012,-1.8140587,-11.505589,0.80488575
657,1663945088017,-1.646561,-11.479267,0.7785647
658,1663945088017,-1.4500505,-11.409576,0.77617186
659,1663945088022,-1.1772687,-11.299507,0.7211369
660,1663945088022,-0.8850453,-11.206186,0.71395844
661,1663945088027,-0.63140607,-11.112866,0.666102
662,1663945088027,-0.4109673,-11.017154,0.6589235
663,1663945088032,-0.18604197,-10.904691,0.67088765
664,1663945088032,0.026919255,-10.751251,0.6684948
665,1663945088037,0.15643078,-10.64836,0.6876374
666,1663945088037,0.28085756,-10.519148,0.71395844
667,1663945088042,0.24017957,-10.346864,0.625424
668,1663945088042,0.24496523,-10.217353,0.503091
669,1663945088047,0.3047858,-10.04507,0.36909288
670,1663945088047,0.28085756,-9.899107,0.22073789
671,1663945088052,0.25932217,-9.784252,0.06999006
672,1663945088052,0.21385853,-9.633204,-0.08105687
673,1663945088056,0.20907287,-9.503992,-0.2222334
674,1663945088056,0.24975087,-9.384352,-0.29880372
675,1663945088061,0.33589247,-9.2742815,-0.38733816
676,1663945088061,0.4459623,-9.12802,-0.49262238
677,1663945088067,0.58713883,-9.046664,-0.6125626
678,1663945088067,0.78364944,-8.929416,-0.701097
679,1663945088071,0.9942178,-8.807382,-0.7609176
680,1663945088071,1.1760724,-8.702098,-0.7465607
681,1663945088076,1.3390833,-8.639884,-0.6221339
682,1663945088076,1.5089738,-8.635098,-0.5237291
683,1663945088087,1.6429719,-8.565408,-0.3681956
684,1663945088087,1.7315062,-8.560622,-0.22462623
685,1663945088088,1.9184456,-8.5678005,-0.06909275
686,1663945088088,2.0524435,-8.618349,0.093918286
687,1663945088091,2.114657,-8.668598,0.27098715
688,1663945088091,2.2007985,-8.73799,0.4648058
689,1663945088096,2.2438695,-8.843274,0.66131634
690,1663945088096,2.184049,-8.95813,0.79770726
691,1663945088101,2.184049,-9.139984,0.9484551
692,1663945088101,2.0835502,-9.322138,1.0417751
693,1663945088106,1.9351953,-9.537492,1.0800604
694,1663945088107,1.8083757,-9.734002,1.1039885
695,1663945088111,1.6716857,-9.956535,1.0896316
696,1663945088111,1.5137594,-10.135997,1.0393823
697,1663945088115,1.27687,-10.284351,1.0202397
698,1663945088116,0.92482597,-10.449756,1.0992029
699,1663945088121,0.58235323,-10.602897,1.1569297
700,1663945088121,0.25692934,-10.736895,1.1494522
701,1663945088126,-0.032901313,-10.916656,1.0872388
702,1663945088126,-0.26261228,-11.076974,1.00349
703,1663945088130,-0.43968117,-11.254043,0.9317053
704,1663945088130,-0.59551376,-11.42184,0.8383852
705,1663945088135,-0.74626154,-11.596516,0.72352976
706,1663945088135,-0.9089735,-11.754442,0.6589235
707,1663945088140,-0.983151,-11.857333,0.58683974
708,1663945088140,-1.0214362,-11.979667,0.5270192
709,1663945088146,-1.079163,-12.072987,0.46959144
710,1663945088146,-1.064507,-12.128021,0.37627137
711,1663945088150,-1.134198,-12.168699,0.3475575
712,1663945088151,-1.1724831,-12.111272,0.36191443
713,1663945088155,-1.2370893,-12.080165,0.37627137
714,1663945088155,-1.2849457,-12.0227375,0.40498522
715,1663945088161,-1.2562319,-11.960225,0.46002015
716,1663945088161,-1.268196,-11.842977,0.5270192
717,1663945088165,-1.3782659,-11.697015,0.64935225
718,1663945088165,-1.4093726,-11.589337,0.7115656
719,1663945088170,-1.3686945,-11.507981,0.7642077
720,1663945088170,-1.4356936,-11.407184,0.8670991
721,1663945088175,-1.4620147,-11.337791,1.0058829
722,1663945088175,-1.4500505,-11.294721,1.0322039
723,1663945088180,-1.4739788,-11.246864,1.1593226
724,1663945088181,-1.4524434,-11.203794,1.2191432
725,1663945088190,-1.3998013,-11.155937,1.2526426
726,1663945088190,-1.4356936,-11.141581,1.329213
727,1663945088190,-1.5290136,-11.093724,1.3914263
728,1663945088190,-1.5816557,-11.076974,1.4656038
729,1663945088195,-1.6223338,-10.995618,1.5254245
730,1663945088195,-1.6585252,-10.950154,1.5900307
731,1663945088200,-1.646561,-10.904691,1.6378871
732,1663945088200,-1.7255242,-10.827822,1.6833507
733,1663945088205,-1.646561,-10.825429,1.6378871
734,1663945088205,-1.7542381,-10.760822,1.5732809
735,1663945088211,-1.8714864,-10.6459675,1.5278172
736,1663945088211,-2.0006988,-10.523933,1.6283158
737,1663945088215,-2.077269,-10.397114,1.7745771
738,1663945088215,-1.9839491,-10.320543,1.843969
739,1663945088220,-1.8619151,-10.269995,1.8678972
740,1663945088220,-1.7757735,-10.222138,1.9468603
741,1663945088225,-1.7303098,-10.155139,2.0665014
742,1663945088225,-1.591227,-10.042677,2.0928226
743,1663945088230,-1.538585,-9.970892,2.2363918
744,1663945088230,-1.4404793,-9.868001,2.2579272
745,1663945088234,-1.2921243,-9.781859,2.2674985
746,1663945088234,-1.2849457,-9.537492,2.4759731
747,1663945088239,-0.9520443,-9.470493,2.4329023
748,1663945088239,-0.6768697,-9.379565,2.3491535
749,1663945088245,-0.44685963,-9.235996,2.3587248
750,1663945088245,-0.22432712,-9.072986,2.3946173
751,1663945088250,-0.10707881,-8.92463,2.519044
752,1663945088250,0.034097724,-8.73799,2.5788646
753,1663945088254,0.369392,-8.637491,2.5118656
754,1663945088254,0.54646087,-8.517551,2.504687
755,1663945088259,0.7046863,-8.378768,2.4711876
756,1663945088259,0.78364944,-8.256734,2.440081
757,1663945088264,0.85064846,-8.103593,2.4041886
758,1663945088264,0.9559326,-7.9238324,2.3084757
759,1663945088269,1.0301101,-7.739585,2.2172494
760,1663945088269,1.0899308,-7.576873,2.1502502
761,1663945088274,1.1282159,-7.4042907,2.114358
762,1663945088274,1.14018,-7.260721,2.0784655
763,1663945088279,1.1593226,-7.1434727,2.114358
764,1663945088279,1.1811571,-7.0166535,2.1861427
765,1663945088284,1.2074782,-6.9158554,2.207678
766,1663945088284,1.2409776,-6.841678,2.274976
767,1663945088289,1.2529417,-6.745965,2.2917259
768,1663945088289,1.27687,-6.726823,2.3371894
769,1663945088293,1.2744771,-6.702894,2.370689
770,1663945088294,1.2433704,-6.7052875,2.4041886
771,1663945088299,1.2290136,-6.686145,2.4185455
772,1663945088299,1.1736795,-6.6909304,2.3826532
773,1663945088304,1.1979069,-6.669395,2.4448664
774,1663945088304,1.2720844,-6.667002,2.5022943
775,1663945088308,1.195514,-6.693323,2.504687
776,1663945088309,1.1162517,-6.7842503,2.480759
777,1663945088314,1.0755738,-6.942476,2.504687
778,1663945088314,1.0660025,-7.071688,2.464009
779,1663945088320,1.0444671,-7.205686,2.3635106
780,1663945088320,0.88414794,-7.3420773,2.3371894
781,1663945088324,0.7070791,-7.4641113,2.3682961
782,1663945088324,0.41485563,-7.600801,2.452045
783,1663945088329,0.24017957,-7.6678,2.41376
784,1663945088329,0.019740786,-7.789834,2.411367
785,1663945088334,-0.18843478,-7.9190464,2.4209383
786,1663945088334,-0.33200413,-7.9740815,2.452045
787,1663945088338,-0.3822534,-7.940582,2.3994029
788,1663945088338,-0.4971089,-7.9238324,2.4161527
789,1663945088343,-0.6649056,-7.911868,2.4903302
790,1663945088343,-0.7893324,-7.8664045,2.4472594
791,1663945088350,-0.8108678,-7.85444,2.4185455
792,1663945088350,-0.88265246,-7.765906,2.3611178
793,1663945088353,-0.8994022,-7.6510506,2.3060827
794,1663945088353,-0.7965108,-7.631908,2.2941186
795,1663945088359,-0.82043904,-7.5936227,2.3395824
796,1663945088359,-0.8659027,-7.5529447,2.3108685
797,1663945088363,-0.86111706,-7.533802,2.2316062
798,1663945088363,-0.76301134,-7.45454,2.1311076
799,1663945088368,-0.64576304,-7.358827,2.0401804
800,1663945088368,-0.5285147,-7.2559357,1.9731814
801,1663945088373,-0.4971089,-7.1434727,1.9971097
802,1663945088373,-0.37268212,-7.0836525,1.9851454
803,1663945088378,-0.32004002,-6.990332,1.9707886
804,1663945088378,-0.31286156,-6.949654,1.951646
805,1663945088384,-0.37746778,-6.91107,1.992324
806,1663945088384,-0.31764722,-6.858428,1.977967
807,1663945088391,-0.3056831,-6.8368926,1.9588244
808,1663945088392,-0.3056831,-6.7986073,2.0306091
809,1663945088421,-0.3272185,-6.7483582,2.1000009
810,1663945088421,-0.39182472,-6.7052875,2.1646073
811,1663945088421,-0.39182472,-6.6598234,2.2172494
812,1663945088421,-0.35593235,-6.6741805,2.2941186
813,1663945088421,-0.34396824,-6.6765733,2.373082
814,1663945088421,-0.36311084,-6.681359,2.466402
815,1663945088421,-0.44207397,-6.6598234,2.5645077
816,1663945088422,-0.4564309,-6.667002,2.6338995
817,1663945088422,-0.45164528,-6.683752,2.7343981
818,1663945088422,-0.51176494,-6.6574306,2.8543384
819,1663945088422,-0.54287165,-6.681359,2.9452655
820,1663945088422,-0.61704916,-6.6646094,3.076871
821,1663945088424,-0.68165535,-6.645467,3.1941192
822,1663945088424,-0.7366903,-6.6335025,3.3137603
823,1663945088427,-0.81565344,-6.6311097,3.3954153
824,1663945088427,-0.8539386,-6.6502523,3.4863427
825,1663945088432,-0.8970094,-6.626324,3.615555
826,1663945088432,-0.9807582,-6.6335025,3.735196
827,1663945088437,-1.0597214,-6.6574306,3.8572302
828,1663945088437,-1.1437693,-6.683752,3.9867415
829,1663945088442,-1.2299109,-6.702894,4.08724
830,1663945088442,-1.3112668,-6.7387867,4.21406
831,1663945088447,-1.416551,-6.760322,4.3097725
832,1663945088447,-1.4644074,-6.7986073,4.403093
833,1663945088451,-1.5002998,-6.856035,4.508377
834,1663945088452,-1.5553347,-6.875178,4.640281
835,1663945088457,-1.6199409,-6.9305115,4.750351
836,1663945088457,-1.6537396,-6.964011,4.8436713
837,1663945088462,-1.6848463,-7.0597243,4.939384
838,1663945088462,-1.782952,-7.088438,5.035097
839,1663945088467,-1.931307,-7.1362944,5.1717873
840,1663945088467,-2.0557337,-7.186544,5.298607
841,1663945088473,-2.204388,-7.2344003,5.482854
842,1663945088473,-2.4675984,-7.2415786,5.6913285
843,1663945088476,-2.891427,-7.181758,5.892326
844,1663945088476,-2.958426,-7.1219373,5.8636117
845,1663945088482,-2.2307088,-7.4712896,5.513961
846,1663945088482,-1.6896319,-7.7826557,5.274678
847,1663945088486,-1.6369898,-7.9573317,5.4637113
848,1663945088486,-1.7733806,-8.005188,5.439783
849,1663945088492,-1.9480567,-8.077271,5.4900327
850,1663945088492,-2.0724835,-8.1179495,5.5570316
851,1663945088496,-2.1924238,-8.177771,5.6359944
852,1663945088496,-2.2354946,-8.225627,5.6410794
853,1663945088501,-2.2929223,-8.268698,5.6336017
854,1663945088502,-2.3264217,-8.340483,5.645865
855,1663945088506,-2.3479571,-8.448159,5.676972
856,1663945088506,-2.3288147,-8.560622,5.7224355
857,1663945088511,-2.295315,-8.69492,5.736792
858,1663945088512,-2.2809582,-8.843274,5.7343993
859,1663945088516,-2.2642083,-8.970094,5.7726846
860,1663945088516,-2.1948166,-9.11127,5.7655063
861,1663945088521,-2.1514466,-9.240782,5.8420763
862,1663945088521,-2.0557337,-9.389137,5.9114685
863,1663945088526,-1.931307,-9.511171,5.985646
864,1663945088526,-1.8332013,-9.623633,6.0311093
865,1663945088531,-1.6896319,-9.702597,6.0574307
866,1663945088532,-1.5720844,-9.765109,6.134001
867,1663945088536,-1.5002998,-9.781859,6.203692
868,1663945088536,-1.4452649,-9.789038,6.2898335
869,1663945088541,-1.3639089,-9.753145,6.411867
870,1663945088541,-1.3232309,-9.726525,6.512366
871,1663945088546,-1.2921243,-9.659526,6.6559353
872,1663945088546,-1.2777673,-9.606884,6.7516484
873,1663945088551,-1.2729816,-9.559028,6.83091
874,1663945088551,-1.2442678,-9.549456,6.871588
875,1663945088556,-1.2059826,-9.535099,6.8835526
876,1663945088556,-1.1174482,-9.554242,6.9122663
877,1663945088561,-1.0262218,-9.628419,6.943373
878,1663945088561,-0.8970094,-9.719346,6.9505515
879,1663945088567,-0.7893324,-9.8321085,6.9673014
880,1663945088567,-0.6768697,-9.973285,7.003194
881,1663945088571,-0.5811568,-10.114461,6.960123
882,1663945088571,-0.5404788,-10.260424,6.969694
883,1663945088576,-0.50428736,-10.377971,6.9481587
884,1663945088576,-0.5165506,-10.531112,6.871588
885,1663945088583,-0.46121657,-10.64836,6.7588267
886,1663945088584,-0.44207397,-10.772787,6.6367927
887,1663945088586,-0.44685963,-10.86162,6.4501524
888,1663945088586,-0.401396,-10.902298,6.2467628
889,1663945088591,-0.33918262,-10.933405,6.026324
890,1663945088591,-0.2961118,-10.957334,5.7726846
891,1663945088595,-0.24825534,-10.950154,5.604888
892,1663945088595,-0.19800608,-10.931012,5.4278193
893,1663945088600,-0.116650105,-10.871191,5.3105707
894,1663945088600,-0.0424726,-10.811071,5.2627144
895,1663945088605,0.036490545,-10.710573,5.2627144
896,1663945088605,0.11335997,-10.605289,5.3201423
897,1663945088611,0.14925231,-10.442577,5.423033
898,1663945088612,0.1683949,-10.269995,5.58096
899,1663945088615,0.14925231,-10.028319,5.779863
900,1663945088615,0.1468595,-9.805787,6.0167527
901,1663945088621,0.09182457,-9.56142,6.277869
902,1663945088621,0.072681986,-9.336494,6.641578
903,1663945088625,0.09421739,-9.139984,7.0582285
904,1663945088625,0.07986046,-9.032308,7.522735
905,1663945088631,0.1683949,-9.029915,8.085348
906,1663945088631,0.30717862,-9.101699,8.17149
907,1663945088635,0.41006997,-9.178569,8.240881
908,1663945088635,0.4339982,-9.29821,8.298309
909,1663945088640,0.41964126,-9.408279,8.310273
910,1663945088641,0.3789633,-9.568599,8.149954
911,1663945088646,0.2425724,-9.728918,7.905886
912,1663945088646,0.17078772,-9.91825,7.6686974
913,1663945088650,0.15164514,-10.179068,7.429415
914,1663945088650,0.14207384,-10.454541,7.1635127
915,1663945088655,0.18514465,-10.732109,6.8859453
916,1663945088655,0.25692934,-11.067403,6.5626154
917,1663945088660,0.27128628,-11.366506,6.201299
918,1663945088661,0.3717848,-11.649158,5.8827543
919,1663945088665,0.5297111,-11.88844,5.497211
920,1663945088666,0.64247286,-12.144772,5.1789656
921,1663945088670,0.7956135,-12.340982,4.8341
922,1663945088670,0.9559326,-12.50848,4.4964128
923,1663945088674,1.0731809,-12.690634,4.106383
924,1663945088674,1.195514,-12.786346,3.7280176
925,1663945088679,1.2744771,-12.886846,3.2970104
926,1663945088680,1.3390833,-12.958631,2.8205397
927,1663945088684,1.4156537,-12.994522,2.3371894
928,1663945088685,1.5209379,-13.039986,1.8320048
929,1663945088691,1.6166508,-13.073485,1.3100704
930,1663945088691,1.6118652,-13.039986,0.80488575
931,1663945088695,1.6645073,-12.977773,0.25902304
932,1663945088695,1.7075781,-12.898809,-0.2653042
933,1663945088700,1.7557336,-12.795918,-0.7680961
934,1663945088700,1.7243278,-12.6116705,-1.122533
935,1663945088705,1.6262221,-12.35534,-1.5293127
936,1663945088705,1.5807585,-12.092129,-1.7904296
937,1663945088709,1.5520446,-11.787942,-1.9770697
938,1663945088709,1.4898312,-11.472089,-2.0847468
939,1663945088715,1.4204394,-11.139188,-2.0464616
940,1663945088715,1.3462619,-10.844571,-1.9028922
941,1663945088720,1.3917254,-10.638788,-1.7018951
942,1663945088720,1.4563317,-10.454541,-1.2804592
943,1663945088723,1.5424733,-10.366007,-0.72741807
944,1663945088724,1.640579,-10.344471,-0.097806625
945,1663945088728,1.7676977,-10.377971,0.68045896
946,1663945088728,1.8562322,-10.466505,1.4847465
947,1663945088734,1.8658035,-10.567004,2.3347967
948,1663945088734,1.7868403,-10.64836,3.1079776
949,1663945088738,1.6357933,-10.748858,3.8117664
950,1663945088738,1.4347963,-10.789536,4.4007
951,1663945088743,1.2912269,-10.823036,4.946563
952,1663945088744,1.0875379,-10.87837,5.238786
953,1663945088748,0.8219346,-10.842178,5.3033924
954,1663945088748,0.52253264,-10.779965,5.3847485
955,1663945088753,0.23060828,-10.667502,5.332106
956,1663945088753,-0.068793654,-10.540683,5.092824
957,1663945088758,-0.3152544,-10.394721,4.846064
958,1663945088758,-0.5739783,-10.281959,4.601996
959,1663945088763,-0.7725826,-10.191031,4.376772
960,1663945088763,-0.99032944,-10.1288185,4.1685963
961,1663945088768,-1.2059826,-10.052248,3.938586
962,1663945088768,-1.3663018,-10.004392,3.7328033
963,1663945088773,-1.6007984,-9.91825,3.4863427
964,1663945088773,-1.8906289,-9.801002,3.2204401
965,1663945088778,-2.1948166,-9.640384,2.9093733
966,1663945088778,-2.501098,-9.413065,2.533401
967,1663945088783,-2.8411777,-9.156734,2.018645
968,1663945088783,-3.1905298,-8.869596,1.3459628
969,1663945088787,-3.501896,-8.5271225,0.6589235
970,1663945088787,-3.760321,-8.261519,-0.21505493
971,1663945088793,-3.8730826,-7.978867,-1.0962119
972,1663945088793,-3.9041893,-7.7826557,-1.96032
973,1663945088798,-3.8754754,-7.60798,-2.8510482
974,1663945088798,-3.8129628,-7.4306116,-3.6290147
975,1663945088802,-3.6287155,-7.358827,-4.241876
976,1663945088802,-3.3128629,-7.320542,-4.706383
977,1663945088807,-2.948855,-7.3516483,-4.9432726
978,1663945088807,-2.5202405,-7.452147,-5.005486
979,1663945088813,-2.0700908,-7.600801,-4.921737
980,1663945088813,-1.6585252,-7.746763,-4.7303114
981,1663945088818,-1.2921243,-7.9190464,-4.447659
982,1663945088818,-0.9735797,-8.062915,-4.1150565
983,1663945088822,-0.81565344,-8.213663,-3.7558343
984,1663945088822,-0.7199405,-8.285447,-3.298506
985,1663945088827,-0.7007979,-8.43141,-2.853441
986,1663945088827,-0.7917252,-8.522337,-2.3147569
987,1663945088833,-0.9951151,-8.639884,-1.7880367
988,1663945088833,-1.2897314,-8.759525,-1.2014961
989,1663945088838,-1.6031911,-8.886345,-0.5838487
990,1663945088838,-1.957628,-9.0347,-0.018843478
991,1663945088842,-2.2666013,-9.185747,0.4671986
992,1663945088842,-2.5226333,-9.37478,0.8599206
993,1663945088847,-2.7092733,-9.61167,1.1784651
994,1663945088847,-2.908177,-9.82493,1.3651053
995,1663945088852,-3.0014968,-10.001999,1.4392828
996,1663945088852,-3.135495,-10.164711,1.4297116
997,1663945088857,-3.216851,-10.281959,1.4177474
998,1663945088857,-3.2336006,-10.366007,1.4273187
999,1663945088862,-3.1546376,-10.454541,1.4703895
1000,1663945088862,-3.0517461,-10.502398,1.5349957
1001,1663945088867,-2.8531418,-10.564611,1.678565
1002,1663945088867,-2.6470602,-10.583754,1.7315062
1003,1663945088872,-2.3958137,-10.569397,1.8056837
1004,1663945088872,-2.0748763,-10.559826,1.8535402
1005,1663945088877,-1.7518452,-10.500005,1.8894325
1006,1663945088877,-1.3591232,-10.435399,1.9229321
1007,1663945088882,-0.93290174,-10.3684,1.9396819
1008,1663945088882,-0.5309075,-10.296615,1.9564316
1009,1663945088887,0.3382853,-10.07139,1.9396819
1010,1663945088900,0.762114,-9.913465,1.966003
1011,1663945088900,1.1425728,-9.805787,1.9803598
1012,1663945088900,1.5161523,-9.647562,2.0353947
1013,1663945088900,1.8610178,-9.525528,2.0904298
1014,1663945088901,2.1026928,-9.403494,2.1478574
1015,1663945088901,2.2821546,-9.202497,2.1717856
1016,1663945088906,2.4619155,-9.063414,2.2196422
1017,1663945088906,2.5600212,-8.927023,2.2124636
1018,1663945088911,2.655734,-8.776276,2.2124636
1019,1663945088911,2.6676981,-8.639884,2.1861427
1020,1663945088917,2.64377,-8.572586,2.193321
1021,1663945088917,2.5289145,-8.469695,2.0952153
1022,1663945088921,2.3662026,-8.390732,2.0353947
1023,1663945088921,2.1242282,-8.371589,2.0258234
1024,1663945088926,1.8705891,-8.407481,1.9899311
1025,1663945088926,1.4898312,-8.433803,1.9061823
1026,1663945088931,1.1186446,-8.476873,1.803291
1027,1663945088931,0.72382885,-8.548658,1.7123637
1028,1663945088936,0.36460635,-8.656634,1.599602
1029,1663945088936,0.0317049,-8.781061,1.4823537
1030,1663945088941,-0.26021945,-8.89113,1.4057833
1031,1663945088941,-0.60029936,-8.953344,1.2669996
1032,1663945088946,-0.942473,-9.068199,1.1279168
1033,1663945088946,-1.2801601,-9.154342,1.0537393
1034,1663945088951,-1.5553347,-9.259925,1.0010972
1035,1663945088951,-1.8308084,-9.341281,0.9340981
1036,1663945088957,-2.0318055,-9.434601,0.89102733
1037,1663945088957,-2.175375,-9.592526,0.9029915
1038,1663945088961,-2.3670998,-9.580563,0.6900302
1039,1663945088962,-2.5178475,-9.645169,0.54376894
1040,1663945088966,-2.632703,-9.6738825,0.46241298
1041,1663945088966,-2.7092733,-9.693026,0.421735
1042,1663945088971,-2.74038,-9.736395,0.36191443
1043,1663945088971,-2.7526433,-9.72174,0.32123643
1044,1663945088976,-2.7332017,-9.728918,0.29491538
1045,1663945088977,-2.6997023,-9.724133,0.27816564
1046,1663945088980,-2.6805596,-9.7145605,0.3068795
1047,1663945088981,-2.608775,-9.7145605,0.36670008
1048,1663945088986,-2.513062,-9.728918,0.43848476
1049,1663945088986,-2.46042,-9.678668,0.45762733
1050,1663945088991,-2.4101706,-9.604491,0.4959125
1051,1663945088991,-2.376671,-9.535099,0.5943173
1052,1663945088996,-2.297708,-9.489635,0.68045896
1053,1663945088996,-2.2594228,-9.42503,0.747458
1054,1663945089002,-2.1777678,-9.367601,0.82881397
1055,1663945089002,-2.1562324,-9.305388,0.88384885
1056,1663945089005,-2.1227329,-9.255139,0.9173484
1057,1663945089005,-2.0605195,-9.202497,0.97477615
1058,1663945089010,-2.0150557,-9.14477,1.0202397
1059,1663945089011,-2.0030916,-9.087342,1.0800604
1060,1663945089015,-1.971985,-9.063414,1.1569297
1061,1663945089015,-2.0222342,-9.027522,1.1760724
1062,1663945089020,-2.0054846,-8.99163,1.1952149
1063,1663945089020,-2.0222342,-8.984451,1.2239288
1064,1663945089025,-1.9935204,-9.065806,1.3579268
1065,1663945089025,-2.0341983,-9.01795,1.2526426
1066,1663945089031,-2.1275184,-9.001201,1.1327025
1067,1663945089031,-2.1490538,-8.99163,1.1135598
1068,1663945089036,-2.1418753,-8.984451,1.1159526
1069,1663945089036,-2.1538396,-8.986844,1.1231312
1070,1663945089040,-2.134697,-9.010772,1.0728818
1071,1663945089040,-2.0581267,-9.039486,1.029811
1072,1663945089045,-1.9767706,-9.056235,0.9819546
1073,1663945089045,-1.9145572,-9.058628,0.95802635
1074,1663945089051,-1.8212371,-9.068199,0.8766704
1075,1663945089051,-1.742274,-9.063414,0.79531443
1076,1663945089056,-1.6369898,-9.05145,0.7642077
1077,1663945089056,-1.5050855,-9.020343,0.70678
1078,1663945089061,-1.3136597,-9.075378,0.8024929
1079,1663945089061,-1.1676974,-9.022736,0.7091728
1080,1663945089065,-1.0621141,-8.998808,0.56769717
1081,1663945089065,-0.99990076,-8.967701,0.5413761
1082,1663945089070,-0.93290174,-8.955737,0.53180486
1083,1663945089071,-0.834796,-8.953344,0.5557331
1084,1663945089075,-0.7199405,-8.955737,0.56769717
1085,1663945089075,-0.62901324,-8.965308,0.5341976
1086,1663945089080,-0.5500501,-8.994022,0.5629115
1087,1663945089080,-0.5165506,-9.041879,0.5919245
1088,1663945089085,-0.45403808,-9.05145,0.6230312
1089,1663945089085,-0.44925246,-9.092128,0.6541379
1090,1663945089090,-0.43010986,-9.137591,0.7043872
1091,1663945089090,-0.4325027,-9.204889,0.747458
1092,1663945089095,-0.4229314,-9.243175,0.81924266
1093,1663945089095,-0.4755735,-9.305388,0.8766704
1094,1663945089100,-0.4660022,-9.4178505,1.0752747
1095,1663945089102,-0.5596214,-9.396316,1.0010972
1096,1663945089105,-0.66011995,-9.448957,0.9317053
1097,1663945089105,-0.7223333,-9.432208,0.99631155
1098,1663945089110,-0.794118,-9.480064,1.0465608
1099,1663945089110,-0.834796,-9.520742,1.137488
1100,1663945089115,-0.8659027,-9.575777,1.2191432
1101,1663945089115,-0.9592228,-9.59492,1.2406785
1102,1663945089120,-1.0190433,-9.59492,1.2502499
1103,1663945089120,-1.0911272,-9.563813,1.247857
1104,1663945089125,-1.1940185,-9.51835,1.2406785
1105,1663945089125,-1.2634103,-9.460921,1.1784651
1106,1663945089129,-1.2729816,-9.477672,1.1063814
1107,1663945089130,-1.2562319,-9.539885,1.0345967
1108,1663945089135,-1.2801601,-9.59492,0.9245269
1109,1663945089135,-1.3471591,-9.604491,0.8790632
1110,1663945089140,-1.4213367,-9.539885,0.8575278
1111,1663945089140,-1.5481563,-9.470493,0.85034937
1112,1663945089144,-1.6298113,-9.39153,0.83359957
1113,1663945089145,-1.6127625,-9.389137,0.7785647
1114,1663945089149,-1.3519448,-9.630812,0.6445666
1115,1663945089149,-1.3016955,-9.6834545,0.52223355
1116,1663945089155,-1.3184453,-9.652348,0.46241298
1117,1663945089155,-1.3615161,-9.496814,0.5054838
1118,1663945089159,-1.4213367,-9.2742815,0.6517451
1119,1663945089160,-1.3208381,-9.168997,0.7259226
1120,1663945089164,-1.2059826,-9.001201,0.8024929
1121,1663945089164,-0.99032944,-8.94138,0.8216355
1122,1663945089170,-0.8491529,-8.92463,0.8359924
1123,1663945089170,-0.7390831,-8.953344,0.7929216
1124,1663945089174,-0.7055836,-8.943773,0.7642077
1125,1663945089174,-0.7893324,-8.927023,0.70678
1126,1663945089180,-0.88025963,-8.862417,0.6230312
1127,1663945089180,-1.0743774,-8.807382,0.64935225
1128,1663945089185,-1.2442678,-8.812167,0.666102
1129,1663945089185,-1.3806586,-8.747561,0.6349953
1130,1663945089194,-1.430908,-8.726026,0.599103
1131,1663945089194,-1.4141582,-8.733205,0.47676992
1132,1663945089203,-1.3998013,-8.7164545,0.40737805
1133,1663945089203,-1.3495519,-8.699705,0.36430725
1134,1663945089204,-1.3232309,-8.723633,0.3044867
1135,1663945089204,-1.3399807,-8.711669,0.27816564
1136,1663945089204,-1.3328022,-8.733205,0.3044867
1137,1663945089204,-1.3782659,-8.778668,0.3475575
1138,1663945089208,-1.4045869,-8.797811,0.3906283
1139,1663945089208,-1.3950156,-8.895916,0.40737805
1140,1663945089214,-1.4715859,-8.9724865,0.5246264
1141,1663945089214,-1.5816557,-9.046664,0.5919245
1142,1663945089219,-1.5337993,-9.116056,0.58923256
1143,1663945089219,-1.5026926,-9.214461,0.5796613
1144,1663945089223,-1.4883357,-9.286245,0.5844469
1145,1663945089223,-1.4333007,-9.377172,0.56769717
1146,1663945089228,-1.4189439,-9.496814,0.5389833
1147,1663945089228,-1.3734802,-9.623633,0.49351966
1148,1663945089233,-1.105484,-10.0163555,0.38823548
1149,1663945089233,-0.9616156,-10.306187,0.2638087
1150,1663945089238,-0.9927223,-10.47847,0.26141587
1151,1663945089238,-1.2394822,-10.346864,0.40737805
1152,1663945089242,-1.591227,-10.097712,0.5919245
1153,1663945089242,-1.8595223,-9.899107,0.7259226
1154,1663945089247,-1.7374884,-10.033105,0.6014958
1155,1663945089247,-1.7590238,-10.006784,0.5413761
1156,1663945089253,-1.7997017,-9.932607,0.43609193
1157,1663945089254,-1.8571295,-9.980463,0.42652065
1158,1663945089259,-1.8954146,-10.042677,0.42891344
1159,1663945089259,-1.931307,-10.047462,0.46241298
1160,1663945089262,-1.9815563,-9.970892,0.48155555
1161,1663945089262,-1.8403797,-10.0163555,0.4336991
1162,1663945089268,-1.6031911,-10.176675,0.38823548
1163,1663945089268,-1.3519448,-10.380363,0.32123643
1164,1663945089273,-1.2562319,-10.473683,0.34516466
1165,1663945089273,-1.3184453,-10.361221,0.47198427
1166,1663945089278,-1.2658032,-10.310972,0.51505506
1167,1663945089278,-1.2179468,-10.375578,0.5943173
1168,1663945089283,-1.3734802,-10.370792,0.7689934
1169,1663945089283,-1.1102697,-10.722537,0.77617186
1170,1663945089288,-0.9281161,-10.8664055,0.70199436
1171,1663945089288,-0.7725826,-11.050653,0.7163513
1172,1663945089293,-0.92572325,-11.009975,0.76660055
1173,1663945089293,-1.0453644,-10.935798,0.7426723
1174,1663945089297,-1.1844472,-10.813464,0.83120674
1175,1663945089297,-1.3710874,-10.655539,0.96520483
1176,1663945089302,-1.5984055,-10.454541,1.1279168
1177,1663945089302,-1.7231314,-10.322936,1.2550355
1178,1663945089307,-1.91695,-10.10489,1.3698909
1179,1663945089307,-1.9624137,-10.004392,1.4177474
1180,1663945089313,-1.9241285,-9.980463,1.4153546
1181,1663945089313,-1.9959131,-9.994821,1.3555341
1182,1663945089317,-1.8547367,-10.042677,1.3172488
1183,1663945089317,-1.7733806,-10.054641,1.3172488
1184,1663945089323,-1.8140587,-9.9756775,1.3627125
1185,1663945089323,-1.9002002,-9.911072,1.4273187
1186,1663945089327,-2.024627,-9.820144,1.4751751
1187,1663945089327,-2.0724835,-9.8727865,1.4847465
1188,1663945089332,-2.012663,-9.949356,1.4392828
1189,1663945089332,-2.0318055,-10.018748,1.410569
1190,1663945089337,-2.0676978,-10.0881405,1.3268201
1191,1663945089337,-2.204388,-10.080962,1.3986049
1192,1663945089342,-2.4412773,-10.068997,1.4608182
1193,1663945089342,-2.6638098,-9.987641,1.5134603
1194,1663945089347,-2.7741787,-10.054641,1.5972091
1195,1663945089347,-3.0014968,-10.042677,1.6642082
1196,1663945089352,-3.1498518,-10.0881405,1.7338991
1197,1663945089353,-3.2240293,-10.224531,1.7024933
1198,1663945089357,-3.3296127,-10.409078,1.7267207
1199,1663945089357,-3.446861,-10.562219,1.7123637
1200,1663945089362,-3.6693935,-10.523933,1.7817556
1201,1663945089362,-3.987938,-10.404292,1.8726828
1202,1663945089367,-4.1410785,-10.416256,1.8559331
1203,1663945089367,-4.1051865,-10.483255,1.7961125
1204,1663945089371,-4.1578283,-10.50479,1.6809579
1205,1663945089372,-4.2511487,-10.497612,1.5948163
1206,1663945089376,-4.3779683,-10.492826,1.5278172
1207,1663945089376,-4.447659,-10.684252,1.4416757
1208,1663945089381,-4.4835515,-10.808679,1.396212
1209,1663945089381,-4.5170507,-10.952547,1.4081762
1210,1663945089387,-4.4524446,-11.148759,1.3818551
1211,1663945089387,-4.339683,-11.402398,1.4249259
1212,1663945089392,-4.1721854,-11.694622,1.5684953
1213,1663945089392,-4.059723,-11.9820595,1.6977077
1214,1663945089419,-3.621537,-12.33859,1.8607187
1215,1663945089419,-3.2647073,-12.642777,2.018645
1216,1663945089419,-3.0062826,-12.726526,2.3132613
1217,1663945089419,-2.8459635,-12.67867,2.6195426
1218,1663945089419,-2.6925237,-12.5686,2.8229325
1219,1663945089419,-2.4891338,-12.520445,2.887838
1220,1663945089419,-2.25703,-12.477374,2.8325038
1221,1663945089419,-2.1131616,-12.329019,2.7631118
1222,1663945089420,-2.0174487,-12.116057,2.7248268
1223,1663945089420,-1.8714864,-12.017952,2.6267211
1224,1663945089421,-1.7566309,-11.945868,2.4879375
1225,1663945089421,-1.6824534,-11.936296,2.3132613
1226,1663945089426,-1.6322042,-11.835798,2.1574287
1227,1663945089426,-1.5984055,-11.764013,2.0497518
1228,1663945089432,-1.4691931,-11.704193,1.829612
1229,1663945089432,-1.3591232,-11.7018,1.6689938
1230,1663945089435,-1.430908,-11.850155,1.7123637
1231,1663945089436,-1.4596218,-11.929118,1.7578273
1232,1663945089441,-1.4620147,-11.989238,1.8535402
1233,1663945089441,-1.4045869,-11.989238,1.8942182
1234,1663945089445,-1.3543376,-11.909976,1.9612173
1235,1663945089445,-1.4261223,-11.857333,2.1239293
1236,1663945089451,-1.3926228,-11.816655,2.1789641
1237,1663945089451,-1.4045869,-11.708979,2.2579272
1238,1663945089456,-1.4907285,-11.598908,2.2674985
1239,1663945089456,-1.5625132,-11.484054,2.1837497
1240,1663945089464,-1.5266209,-11.452947,2.1598215
1241,1663945089464,-1.4668003,-11.371291,2.1358933
1242,1663945089468,-1.442872,-11.277971,2.006681
1243,1663945089468,-1.4141582,-11.218151,1.8320048
1244,1663945089471,-1.3950156,-11.15833,1.6307086
1245,1663945089471,-1.3854443,-11.12483,1.3746766
1246,1663945089475,-1.3806586,-11.074581,1.1398809
1247,1663945089475,-1.3351951,-11.076974,0.94606227
1248,1663945089480,-1.2442678,-11.076974,0.7498508
1249,1663945089480,-1.1964114,-11.112866,0.6302097
1250,1663945089485,-1.0334003,-11.184651,0.5246264
1251,1663945089485,-0.8419745,-11.292328,0.4408776
1252,1663945089490,-0.67208403,-11.368898,0.47916272
1253,1663945089491,-0.4660022,-11.448161,0.5389833
1254,1663945089495,-0.26979074,-11.507981,0.5413761
1255,1663945089495,0.050847482,-11.584552,0.55812585
1256,1663945089500,0.30000013,-11.615659,0.58923256
1257,1663945089500,0.54406804,-11.627623,0.6302097
1258,1663945089505,0.7429714,-11.62523,0.68045896
1259,1663945089506,0.9774681,-11.622837,0.7115656
1260,1663945089510,1.1883355,-11.656337,0.77377903
1261,1663945089510,1.3151551,-11.646765,0.8527422
1262,1663945089515,1.398904,-11.59173,0.9532407
1263,1663945089515,1.4084753,-11.51516,1.0369896
1264,1663945089520,1.4395819,-11.474482,1.1422737
1265,1663945089521,1.4132608,-11.429018,1.2000005
1266,1663945089526,1.3869399,-11.392827,1.2454642
1267,1663945089526,1.3797613,-11.431411,1.3579268
1268,1663945089530,1.398904,-11.409576,1.410569
1269,1663945089530,1.3917254,-11.36172,1.5254245
1270,1663945089535,1.3127624,-11.32822,1.6450655
1271,1663945089535,1.2433704,-11.340185,1.7697915
1272,1663945089540,1.1282159,-11.321042,1.8798612
1273,1663945089540,0.98943216,-11.304293,2.0162523
1274,1663945089545,0.80997044,-11.28515,2.114358
1275,1663945089545,0.64965135,-11.294721,2.1598215
1276,1663945089550,0.44835514,-11.2684,2.1741784
1277,1663945089551,0.26171497,-11.277971,2.1574287
1278,1663945089555,0.03888337,-11.287542,2.1239293
1279,1663945089555,-0.21475583,-11.282757,2.0688944
1280,1663945089560,-0.41814575,-11.246864,1.9731814
1281,1663945089560,-0.66729844,-11.297114,1.8966111
1282,1663945089565,-0.8012965,-11.309078,1.7697915
1283,1663945089565,-0.9664012,-11.352149,1.6067804
1284,1663945089570,-1.1270195,-11.321042,1.5326029
1285,1663945089570,-1.3998013,-11.309078,1.585245
1286,1663945089574,-1.6441683,-11.277971,1.585245
1287,1663945089575,-1.8571295,-11.227722,1.5134603
1288,1663945089579,-2.0916262,-11.1320095,1.4847465
1289,1663945089579,-2.2737796,-11.0195465,1.4823537
1290,1663945089585,-2.417349,-10.911869,1.4249259
1291,1663945089586,-2.5633113,-10.789536,1.3603196
1292,1663945089590,-2.6255248,-10.698609,1.2765709
1293,1663945089590,-2.6446671,-10.638788,1.1784651
1294,1663945089594,-2.5226333,-10.57179,1.0944172
1295,1663945089595,-2.5154548,-10.519148,1.00349
1296,1663945089599,-2.431706,-10.488041,0.94606227
1297,1663945089599,-2.3264217,-10.473683,0.9556335
1298,1663945089604,-2.1801605,-10.471291,0.97477615
1299,1663945089604,-2.0868404,-10.447363,1.0872388
1300,1663945089609,-1.986342,-10.4210415,1.2646067
1301,1663945089609,-1.8427725,-10.423434,1.4129617
1302,1663945089614,-1.6896319,-10.41147,1.558924
1303,1663945089614,-1.579263,-10.437792,1.7697915
1304,1663945089619,-1.4883357,-10.423434,1.9301106
1305,1663945089619,-1.416551,-10.399507,2.0641086
1306,1663945089624,-1.4333007,-10.394721,2.1717856
1307,1663945089624,-1.3232309,-10.404292,2.140679
1308,1663945089629,-1.2251252,-10.418649,2.1717856
1309,1663945089630,-1.134198,-10.44497,2.1741784
1310,1663945089633,-1.0719845,-10.399507,2.1693928
1311,1663945089633,-1.038186,-10.308579,2.2603202
1312,1663945089638,-0.9975079,-10.224531,2.385046
1313,1663945089638,-0.95682997,-10.114461,2.3635106
1314,1663945089643,-0.86111706,-10.006784,2.3467607
1315,1663945089643,-0.6936195,-9.91825,2.2845473
1316,1663945089649,-0.4971089,-9.875179,2.1454647
1317,1663945089649,-0.33200413,-9.817751,2.033002
1318,1663945089653,-0.20279172,-9.741181,1.9588244
1319,1663945089653,-0.044865426,-9.626026,1.910968
1320,1663945089659,0.20668006,-9.59492,1.8559331
1321,1663945089659,0.38853458,-9.549456,1.7001005
1322,1663945089664,0.56560344,-9.434601,1.5493526
1323,1663945089664,0.7286145,-9.331709,1.4273187
1324,1663945089668,0.73100734,-9.159127,1.4057833
1325,1663945089668,0.9798609,-9.046664,1.2598212
1326,1663945089673,1.1234303,-8.960523,1.2071791
1327,1663945089673,1.250549,-8.843274,1.2502499
1328,1663945089678,1.3390833,-8.778668,1.3459628
1329,1663945089678,1.4012967,-8.6757765,1.4033905
1330,1663945089683,1.398904,-8.565408,1.463211
1331,1663945089683,1.3941183,-8.43141,1.5397813
1332,1663945089695,1.4587245,-8.290234,1.666601
1333,1663945089695,1.4850456,-8.170592,1.7793628
1334,1663945089695,1.4898312,-8.026724,1.8535402
1335,1663945089695,1.3965111,-7.90469,1.8894325
1336,1663945089698,1.343869,-7.7946196,1.9013968
1337,1663945089698,1.2529417,-7.7443705,1.829612
1338,1663945089703,1.1186446,-7.670193,1.7578273
1339,1663945089703,1.0396814,-7.6199436,1.7482561
1340,1663945089708,0.93679005,-7.5792656,1.7673986
1341,1663945089709,0.8003992,-7.5409803,1.7554345
1342,1663945089710,0.68075806,-7.5720873,1.788934
1343,1663945089716,0.51056856,-7.5816584,1.87029
1344,1663945089716,0.36699918,-7.5816584,1.8918254
1345,1663945089720,0.38374892,-7.746763,1.7793628
1346,1663945089720,0.369392,-7.8376904,1.7410775
1347,1663945089725,0.28085756,-7.9740815,1.7458632
1348,1663945089725,0.18993029,-8.091629,1.7937196
1349,1663945089731,0.10378868,-8.208878,1.8200407
1350,1663945089731,-0.047258247,-8.314161,1.8535402
1351,1663945089734,-0.20757736,-8.436195,1.9085752
1352,1663945089735,-0.2865405,-8.496016,1.96361
1353,1663945089741,-0.4229314,-8.534301,2.0090737
1354,1663945089741,-0.48753762,-8.62792,2.0425732
1355,1663945089744,-0.6122635,-8.6757765,2.0353947
1356,1663945089744,-0.619442,-8.642277,2.004288
1357,1663945089749,-0.6266204,-8.685348,2.0114665
1358,1663945089749,-0.5691927,-8.72124,2.0114665
1359,1663945089755,-0.4779663,-8.742776,1.9995024
1360,1663945089755,-0.38464624,-8.766704,2.0090737
1361,1663945089759,-0.3056831,-8.740383,2.0258234
1362,1663945089759,-0.15254244,-8.706883,1.9971097
1363,1663945089764,-0.030508488,-8.699705,1.9995024
1364,1663945089765,0.10857433,-8.726026,1.9971097
1365,1663945089769,0.27128628,-8.766704,2.0114665
1366,1663945089769,0.38853458,-8.783454,1.9540387
1367,1663945089775,0.47228336,-8.800203,1.8487546
1368,1663945089775,0.5943173,-8.690134,1.8056837
1369,1663945089780,0.6831509,-8.596515,1.87029
1370,1663945089780,0.85064846,-8.522337,1.9157536
1371,1663945089785,0.9343972,-8.445766,1.9540387
1372,1663945089785,1.0229317,-8.354839,1.9540387
1373,1663945089790,1.0612168,-8.273483,1.96361
1374,1663945089790,1.1138589,-8.139485,2.0282164
1375,1663945089794,1.1066805,-8.017152,2.059323
1376,1663945089795,1.0636097,-7.8687973,2.0880368
1377,1663945089801,0.98943216,-7.6893353,2.114358
1378,1663945089801,0.96789676,-7.5529447,2.126322
1379,1663945089804,0.9798609,-7.4832535,2.1071794
1380,1663945089805,0.9702896,-7.3755765,2.1598215
1381,1663945089808,0.8913264,-7.196115,2.1741784
1382,1663945089809,0.8147561,-7.0669026,2.2917259
1383,1663945089814,0.72382885,-6.9759755,2.3635106
1384,1663945089814,0.64008003,-6.9134626,2.3898315
1385,1663945089818,0.62811595,-6.908677,2.3659034
1386,1663945089818,0.6329016,-6.9134626,2.3778675
1387,1663945089824,0.62811595,-6.9134626,2.3659034
1388,1663945089824,0.57517475,-6.91107,2.385046
1389,1663945089828,0.49860442,-6.9182487,2.3802602
1390,1663945089828,0.37657046,-6.8967133,2.4472594
1391,1663945089834,0.25932217,-6.851249,2.4975085
1392,1663945089834,0.07507481,-6.786643,2.559722
1393,1663945089838,-0.028115666,-6.702894,2.612364
1394,1663945089838,-0.16689938,-6.6406813,2.7152555
1395,1663945089844,-0.27936205,-6.6167526,2.7272196
1396,1663945089844,-0.3152544,-6.602396,2.7846475
1397,1663945089849,-0.41575295,-6.5138617,2.8375885
1398,1663945089849,-0.53330034,-6.446862,2.8926234
1399,1663945089853,-0.61704916,-6.3942204,2.9452655
1400,1663945089853,-0.67447686,-6.4348984,2.9883363
1401,1663945089859,-0.7510472,-6.4277196,3.0672996
1402,1663945089859,-0.83718884,-6.358029,3.1510484
1403,1663945089864,-0.97597253,-6.259923,3.2276187
1404,1663945089864,-1.0214362,-6.221638,3.289832
1405,1663945089869,-0.9975079,-6.235995,3.3592238
1406,1663945089869,-0.9520443,-6.2934227,3.397808
1407,1663945089874,-1.0357931,-6.3388863,3.5030923
1408,1663945089874,-1.0767702,-6.3460646,3.5964124
1409,1663945089878,-1.1557333,-6.348458,3.6897326
1410,1663945089879,-1.1485549,-6.554539,3.7280176
1411,1663945089883,-1.1988041,-6.6311097,3.8356948
1412,1663945089883,-1.2514462,-6.736394,3.8763726
1413,1663945090389,-1.2466606,-9.496814,0.81924266
1414,1663945090390,-1.4093726,-9.551849,0.7905288
1415,1663945090404,-1.6247265,-9.551849,0.7259226
1416,1663945090404,-1.7518452,-9.57817,0.6373881
1417,1663945090404,-1.8284156,-9.602098,0.59671015
1418,1663945090404,-1.8523438,-9.616455,0.6086743
1419,1663945090404,-1.864308,-9.65474,0.6373881
1420,1663945090404,-1.849951,-9.731609,0.70678
1421,1663945090410,-1.8403797,-9.741181,0.84077805
1422,1663945090410,-1.8475581,-9.74836,0.97477615
1423,1663945090414,-1.7973089,-9.784252,1.0752747
1424,1663945090414,-1.7327027,-9.765109,1.2382857
1425,1663945090417,-1.7733806,-9.635597,1.1231312
1426,1663945090417,-1.7350955,-9.5709915,1.166501
1427,1663945090422,-1.687239,-9.503992,1.3483555
1428,1663945090422,-1.687239,-9.362816,1.3411771
1429,1663945090426,-1.7135601,-9.286245,1.3866407
1430,1663945090426,-1.8188443,-9.235996,1.4177474
1431,1663945090431,-1.9360926,-9.2336035,1.3794622
1432,1663945090431,-1.9935204,-9.250353,1.3268201
1433,1663945090436,-1.9241285,-9.271889,1.2215359
1434,1663945090436,-1.7805592,-9.322138,1.0800604
1435,1663945090442,-1.579263,-9.362816,0.88384885
1436,1663945090442,-1.3591232,-9.37478,0.73788667
1437,1663945090453,-1.160519,-9.360423,0.5943173
1438,1663945090453,-1.0190433,-9.338887,0.49112684
1439,1663945090453,-0.8539386,-9.295816,0.41934216
1440,1663945090453,-0.7199405,-9.212068,0.40977088
1441,1663945090457,-0.6266204,-9.139984,0.41934216
1442,1663945090457,-0.5476573,-9.11127,0.4671986
1443,1663945090462,-0.5069793,-9.070593,0.50787663
1444,1663945090462,-0.45882374,-8.996415,0.5485546
1445,1663945090466,-0.43489552,-8.950952,0.5943173
1446,1663945090466,-0.40378883,-8.919845,0.59671015
1447,1663945090472,-0.37986058,-8.869596,0.625424
1448,1663945090472,-0.38703907,-8.845667,0.6302097
1449,1663945090477,-0.4325027,-8.867203,0.6373881
1450,1663945090477,-0.4779663,-8.86481,0.6541379
1451,1663945090481,-0.55722857,-8.867203,0.6469594
1452,1663945090481,-0.6361917,-8.915059,0.6230312
1453,1663945090486,-0.69601226,-8.970094,0.625424
1454,1663945090486,-0.74147594,-9.022736,0.6326025
1455,1663945090492,-0.81565344,-9.089735,0.62781686
1456,1663945090492,-0.8874381,-9.197711,0.7402795
1457,1663945090496,-1.0166506,-9.180962,0.5389833
1458,1663945090496,-1.1030912,-9.173783,0.52223355
1459,1663945090504,-1.2227324,-9.209675,0.5509474
1460,1663945090504,-1.2610176,-9.269496,0.5605187
1461,1663945090506,-1.2634103,-9.329316,0.5772685
1462,1663945090506,-1.2610176,-9.350852,0.58923256
1463,1663945090511,-1.2466606,-9.384352,0.60388863
1464,1663945090511,-1.2466606,-9.3867445,0.61824554
1465,1663945090516,-1.2634103,-9.42503,0.6589235
1466,1663945090516,-1.2442678,-9.410672,0.68045896
1467,1663945090521,-1.2203395,-9.39153,0.70678
1468,1663945090521,-1.2059826,-9.3867445,0.733101
1469,1663945090526,-1.2083755,-9.35803,0.8072785
1470,1663945090526,-1.2346965,-9.331709,0.85034937
1471,1663945090530,-1.253839,-9.29821,0.8790632
1472,1663945090530,-1.2490535,-9.26471,0.86949193
1473,1663945090538,-1.0935199,-9.214461,0.8575278
1474,1663945090538,-1.1676974,-8.66142,1.1784651
1475,1663945090542,-1.8140587,-8.534301,1.9971097
1476,1663945090542,-2.0030916,-8.883952,1.3459628
1477,1663945090549,-1.768595,-9.300603,0.5919245
1478,1663945090549,-1.4668003,-9.573384,0.019441685
1479,1663945090553,-1.2610176,-9.661919,-0.13609178
1480,1663945090553,-1.1676974,-9.618848,0.07238288
1481,1663945090556,-1.1557333,-9.506385,0.35473597
1482,1663945090556,-1.1437693,-9.453743,0.54376894
1483,1663945090561,-1.0525428,-9.436994,0.64217377
1484,1663945090561,-0.9233304,-9.456136,0.69242305
1485,1663945090567,-0.8276175,-9.494421,0.70678
1486,1663945090567,-0.69601226,-9.525528,0.6732805
1487,1663945090570,-0.53330034,-9.54467,0.6326025
1488,1663945090570,-0.45882374,-9.535099,0.60628146
1489,1663945090575,-0.36550367,-9.520742,0.5919245
1490,1663945090575,-0.32961133,-9.487243,0.57009
1491,1663945090583,-0.31046873,-9.477672,0.5772685
1492,1663945090583,-0.34636107,-9.494421,0.599103
1493,1663945090585,-0.36550367,-9.494421,0.66131634
1494,1663945090585,-0.3894319,-9.542277,0.6684948
1495,1663945090592,-0.4109673,-9.556635,0.6756733
1496,1663945090592,-0.42771706,-9.551849,0.6469594
1497,1663945090595,-0.45164528,-9.563813,0.60388863
1498,1663945090595,-0.4660022,-9.551849,0.56530434
1499,1663945090599,-0.5500501,-9.515957,0.5485546
1500,1663945090599,-0.64576304,-9.401101,0.5629115
1501,1663945090606,-0.77736825,-9.2336035,0.55334026
1502,1663945090606,-0.983151,-9.053843,0.5557331
1503,1663945090610,-1.1892328,-8.871988,0.57009
1504,1663945090610,-1.3423735,-8.898309,0.60388863
1505,1663945090615,-1.375873,-9.05145,0.65653074
1506,1663945090615,-1.3639089,-9.204889,0.73070824
1507,1663945090619,-1.2442678,-9.283853,0.7115656
1508,1663945090619,-1.1629118,-9.396316,0.7402795
1509,1663945090626,-1.0911272,-9.448957,0.747458
1510,1663945090626,-1.0142577,-9.520742,0.77377903
1511,1663945090630,-0.95682997,-9.566206,0.7809575
1512,1663945090630,-0.93290174,-9.580563,0.83359957
1513,1663945090642,-0.9448658,-9.604491,0.90059865
1514,1663945090642,-0.9592228,-9.57817,0.96520483
1515,1663945090642,-0.9807582,-9.551849,1.0106685
1516,1663945090642,-0.96879405,-9.551849,1.0369896
1517,1663945090645,-1.0262218,-9.527921,1.0657034
1518,1663945090645,-1.0477573,-9.513564,1.0872388
1519,1663945090649,-1.1413764,-9.508778,1.1063814
1520,1663945090649,-1.1796615,-9.48485,1.0513464
1521,1663945090655,-1.2323036,-9.487243,1.0106685
1522,1663945090655,-1.2729816,-9.494421,0.9508479
1523,1663945090659,-1.2873386,-9.513564,0.8790632
1524,1663945090659,-1.294517,-9.542277,0.78813595
1525,1663945090664,-1.3064811,-9.606884,0.7043872
1526,1663945090664,-1.3184453,-9.700204,0.666102
1527,1663945090671,-1.3830515,-9.757931,0.6589235
1528,1663945090671,-1.3974084,-9.820144,0.66370916
1529,1663945090675,-1.39023,-9.8632145,0.68045896
1530,1663945090675,-1.3543376,-9.9038925,0.6326025
1531,1663945090681,-1.3280165,-9.908679,0.61824554
1532,1663945090681,-1.2993027,-9.920643,0.55334026
1533,1663945090685,-1.3208381,-9.980463,0.5389833
1534,1663945090685,-1.308874,-10.059426,0.5796613
1535,1663945090688,-1.268196,-10.207782,0.70199436
1536,1663945090688,-1.2921243,-10.186246,0.73788667
1537,1663945090697,-1.4548361,-10.037891,0.6684948
1538,1663945090697,-1.5194423,-9.966106,0.5461618
1539,1663945090699,-1.5529419,-10.006784,0.55812585
1540,1663945090699,-1.5888343,-10.07139,0.6517451
1541,1663945090704,-1.5864414,-10.023534,0.7929216
1542,1663945090704,-1.605584,-9.664311,1.1904292
1543,1663945090710,-2.038984,-9.597313,1.6594225
1544,1663945090710,-2.3264217,-10.061819,1.3651053
1545,1663945090717,-2.3383858,-10.385149,1.1641082
1546,1663945090717,-2.2857437,-10.4617195,0.84077805
1547,1663945090723,-2.1394825,-10.476077,0.54376894
1548,1663945090723,-2.0030916,-10.521541,0.58923256
1549,1663945090731,-1.9097716,-10.552647,0.7929216
1550,1663945090731,-1.8475581,-10.595717,1.0417751
1551,1663945090731,-1.82363,-10.653146,1.3004991
1552,1663945090731,-1.8140587,-10.722537,1.4871392
1553,1663945090733,-1.8044873,-10.782358,1.599602
1554,1663945090733,-1.7853448,-10.815858,1.6043876
1555,1663945090739,-1.7973089,-10.818251,1.5349957
1556,1663945090739,-1.8810577,-10.846964,1.4129617
1557,1663945090743,-1.8116659,-10.864013,1.3507484
1558,1663945090743,-1.7638094,-10.885549,1.314856
1559,1663945090748,-1.6824534,-10.928619,1.3244274
1560,1663945090748,-1.5577276,-11.021939,1.302892
1561,1663945090753,-1.5457634,-11.045868,1.3172488
1562,1663945090753,-1.6944175,-10.846964,1.3435699
1563,1663945090759,-1.8260227,-10.70818,1.2957134
1564,1663945090759,-1.8810577,-10.6459675,1.3268201
1565,1663945090763,-2.0557337,-10.564611,1.2526426
1566,1663945090763,-1.8930218,-10.59811,1.1712867
1567,1663945090769,-1.5314065,-10.959726,1.3722838
1568,1663945090769,-1.6561323,-10.657931,1.2358929
1569,1663945090773,-1.6537396,-10.610075,0.87188476
1570,1663945090773,-1.6393826,-10.552647,0.75942206
1571,1663945090777,-1.6417755,-10.41147,0.6302097
1572,1663945090777,-1.550549,-10.332507,0.5054838
1573,1663945090783,-1.4189439,-10.322936,0.43609193
1574,1663945090783,-1.4811572,-10.44497,0.64217377
1575,1663945090788,-1.5529419,-10.509576,0.82642114
1576,1663945090788,-1.6657037,-10.578968,1.0010972
1577,1663945090793,-1.6513467,-10.64836,1.0896316
1578,1663945090793,-1.6800606,-10.689038,1.1422737
1579,1663945090797,-1.6944175,-10.70818,1.1183455
1580,1663945090797,-1.7111673,-10.748858,1.0274183
1581,1663945090805,-1.742274,-10.789536,0.89342016
1582,1663945090805,-1.7590238,-10.899905,0.73549384
1583,1663945090808,-1.8188443,-11.017154,0.52941203
1584,1663945090808,-1.8140587,-11.266007,0.39541394
1585,1663945090812,-1.6848463,-11.649158,0.2111666
1586,1663945090812,-1.6657037,-11.7616205,0.24227329
1587,1663945090818,-1.675275,-11.94826,0.26620153
1588,1663945090818,-1.715953,-12.183057,0.3260221
1589,1663945090822,-1.82363,-12.479767,0.5270192
1590,1663945090822,-1.8571295,-12.743276,0.72352976
1591,1663945090828,-1.8547367,-13.004094,0.84077805
1592,1663945090828,-1.8595223,-13.202997,0.9317053
1593,1663945090833,-2.02702,-13.313067,1.0106685
1594,1663945090833,-2.0174487,-13.403995,1.0561321
1595,1663945090837,-1.986342,-13.44228,1.1617154
1596,1663945090837,-1.9528424,-13.447065,1.2598212
1597,1663945090842,-1.9743778,-13.411173,1.3603196
1598,1663945090842,-1.9839491,-13.339388,1.5014962
1599,1663945090848,-1.986342,-13.241282,1.6235301
1600,1663945090848,-2.0485554,-13.167105,1.7578273
1601,1663945090852,-2.1394825,-13.08545,1.8487546
1602,1663945090852,-2.01027,-13.133605,1.8248264
1603,1663945090857,-2.0509481,-12.709777,1.6522441
1604,1663945090857,-2.7765715,-12.396018,2.1478574
1605,1663945090865,-2.9656045,-12.460624,1.992324
1606,1663945090865,-2.8579276,-12.748062,1.5948163
1607,1663945090867,-2.8938198,-12.80549,1.422533
1608,1663945090867,-2.8986056,-12.870095,1.3603196
1609,1663945090872,-2.879463,-12.850953,1.262214
1610,1663945090872,-2.8268209,-12.872489,1.1521441
1611,1663945090877,-2.7765715,-12.834204,1.0920244
1612,1663945090877,-2.6638098,-12.812668,1.084846
1613,1663945090881,-2.5082762,-12.740883,1.137488
1614,1663945090881,-2.3455644,-12.649956,1.1470593
1615,1663945090887,-2.1948166,-12.537494,1.1880364
1616,1663945090887,-2.0365913,-12.429517,1.2023934
1617,1663945090901,-2.0030916,-12.302697,1.2191432
1618,1663945090901,-2.0054846,-12.171092,1.1569297
1619,1663945090901,-1.864308,-11.986845,1.0609177
1620,1663945090901,-1.6896319,-11.850155,1.0369896
1621,1663945090901,-1.5888343,-11.81187,1.0609177
1622,1663945090901,-1.4333007,-11.737693,1.029811
1623,1663945090906,-1.4596218,-11.637194,0.9269197
1624,1663945090906,-1.4620147,-11.519945,0.7642077
1625,1663945090911,-1.430908,-11.457732,0.58683974
1626,1663945090911,-1.2729816,-11.404791,0.38823548
1627,1663945090918,-1.0911272,-11.366506,0.23509483
1628,1663945090918,-0.89461654,-11.323435,0.14416756
1629,1663945090921,-0.686441,-11.280364,0.14177474
1630,1663945090921,-0.48275197,-11.222937,0.11784652
1631,1663945090933,-0.26021945,-11.155937,0.08673982
1632,1663945090933,0.0077766734,-11.136795,0.04366901
1633,1663945090933,0.28085756,-11.062617,0.021834506
1634,1663945090933,0.5416752,-11.00519,0.026620151
1635,1663945090938,0.84347,-10.947762,0.04127619
1636,1663945090938,1.0827522,-10.859227,0.034097724
1637,1663945090941,1.2912269,-10.808679,0.14177474
1638,1663945090942,1.559223,-10.791929,0.20638095
1639,1663945090946,1.7123637,-10.782358,0.27816564
1640,1663945090946,1.777269,-10.753644,0.381057
1641,1663945090951,1.8227327,-10.696217,0.49830532
1642,1663945090951,1.8777676,-10.660324,0.5509474
1643,1663945090957,1.8538394,-10.602897,0.6541379
1644,1663945090957,1.7653049,-10.531112,0.8072785
1645,1663945090960,1.5400804,-10.44497,0.895813
1646,1663945090961,1.37019,-10.35165,0.96759766
1647,1663945090965,1.1931212,-10.253245,1.070489
1648,1663945090965,1.0133604,-10.169497,1.1446666
1649,1663945090972,0.7788638,-10.095319,1.2215359
1650,1663945090972,0.5919245,-10.023534,1.2071791
1651,1663945090977,0.38374892,-9.949356,1.2071791
1652,1663945090977,0.2425724,-9.932607,1.1712867
1653,1663945090982,0.04127619,-9.865608,1.1303096
1654,1663945090982,-0.19082761,-9.834501,1.0800604
1655,1663945090987,-0.32243285,-9.803394,0.9723833
1656,1663945090987,-0.40618163,-9.810573,0.8168498
1657,1663945090991,-0.53569317,-9.798609,0.6948159
1658,1663945090991,-0.6026922,-9.801002,0.5629115
1659,1663945090995,-0.62183475,-9.812965,0.3930211
1660,1663945090995,-0.6122635,-9.834501,0.23988047
1661,1663945091000,-0.63140607,-9.82493,0.12502499
1662,1663945091000,-0.7175477,-9.829716,0.005084748
1663,1663945091005,-0.7151549,-9.82493,-0.052342996
1664,1663945091005,-0.7079764,-9.805787,-0.095413804
1665,1663945091011,-0.7821539,-9.820144,-0.07627122
1666,1663945091011,-0.80847496,-9.836894,-0.097806625
1667,1663945091016,-0.8180462,-9.875179,-0.059521463
1668,1663945091016,-0.83718884,-9.925428,0.014656039
1669,1663945091020,-0.901795,-9.966106,0.07956135
1670,1663945091020,-0.9376874,-9.997213,0.22073789
1671,1663945091026,-1.0334003,-10.030712,0.34516466
1672,1663945091026,-1.023829,-9.956535,-0.014057833
1673,1663945091031,-1.268196,-9.532706,-0.55034924
1674,1663945091031,-1.8810577,-9.42503,1.3818551
1675,1663945091039,-2.2187448,-9.649955,2.2965117
1676,1663945091039,-2.1107686,-10.001999,2.1646073
1677,1663945091042,-1.7255242,-10.320543,1.6809579
1678,1663945091043,-1.3399807,-10.535897,1.3387842
1679,1663945091045,-1.0839486,-10.624432,1.2693924
1680,1663945091045,-0.9711869,-10.655539,1.5373886
1681,1663945091050,-0.9735797,-10.64836,1.8726828
1682,1663945091050,-1.009472,-10.564611,2.205285
1683,1663945091054,-1.0453644,-10.526326,2.4185455
1684,1663945091054,-1.0477573,-10.502398,2.5692933
1685,1663945091059,-1.0887343,-10.459327,2.653042
1686,1663945091060,-1.0695918,-10.437792,2.6338995
1687,1663945091065,-1.1557333,-10.418649,2.4472594
1688,1663945091065,-1.2131611,-10.327722,2.3252254
1689,1663945091071,-1.2801601,-10.236495,2.1000009
1690,1663945091071,-1.3160524,-10.145568,1.9348962
1691,1663945091074,-1.2658032,-10.090533,1.7434704
1692,1663945091074,-1.308874,-10.049855,1.5541383
1693,1663945091080,-1.294517,-10.001999,1.4129617
1694,1663945091080,-1.282553,-9.954143,1.1688938
1695,1663945091085,-1.2562319,-9.932607,0.9484551
1696,1663945091085,-1.174876,-9.923036,0.747458
1697,1663945091090,-1.0453644,-9.911072,0.58683974
1698,1663945091090,-1.0142577,-9.899107,0.44805604
1699,1663945091094,-0.91854477,-9.860822,0.33320054
1700,1663945091094,-0.8252247,-9.836894,0.232702
1701,1663945091099,-0.72472614,-9.815358,0.24705894
1702,1663945091099,-0.6433702,-9.762716,0.2542374
1703,1663945091104,-0.5476573,-9.743574,0.2973082
1704,1663945091104,-0.37507495,-9.690633,0.34277186
1705,1663945091110,-0.293719,-9.657133,0.43130627
1706,1663945091110,-0.20279172,-9.580563,0.55334026
1707,1663945091113,-0.047258247,-9.527921,0.66131634
1708,1663945091113,0.072681986,-9.436994,0.75224364
1709,1663945091118,0.18753748,-9.355638,0.8001001
1710,1663945091118,0.24735804,-9.255139,0.814457
1711,1663945091123,0.35264224,-9.151948,0.82642114
1712,1663945091123,0.4004987,-8.996415,0.8359924
1713,1663945091130,0.46271208,-8.876774,0.85513496
1714,1663945091130,0.46989053,-8.749954,0.8766704
1715,1663945091133,0.48185465,-8.637491,0.89102733
1716,1663945091133,0.5392824,-8.558229,0.8742776
1717,1663945091139,0.56799626,-8.49123,0.91495556
1718,1663945091139,0.5703891,-8.438588,0.9819546
1719,1663945091145,0.5488537,-8.409874,1.017847
1720,1663945091145,0.5392824,-8.395517,1.1279168
1721,1663945091150,0.5297111,-8.388339,1.1952149
1722,1663945091150,0.44117668,-8.4146595,1.2430713
1723,1663945091155,0.39810586,-8.429017,1.3531412
1724,1663945091155,0.42681974,-8.493623,1.3674982
1725,1663945091161,0.40767714,-8.522337,1.3938192
1726,1663945091161,0.38853458,-8.541479,1.3986049
1727,1663945091163,0.4004987,-8.586944,1.4177474
1728,1663945091163,0.4316054,-8.625527,1.4703895
1729,1663945091169,0.4004987,-8.666205,1.5254245
1730,1663945091169,0.23539393,-8.69492,1.6426728
1731,1663945091173,0.19950159,-8.733205,1.5924234
1732,1663945091173,0.22582264,-8.797811,1.5469599
1733,1663945091178,0.30000013,-8.855238,1.5254245
1734,1663945091178,0.3574279,-8.927023,1.5684953
1735,1663945091183,0.3717848,-8.94138,1.5732809
1736,1663945091183,0.38614175,-8.986844,1.5421742
1737,1663945091189,0.2976073,-9.025128,1.5421742
1738,1663945091189,0.19232312,-9.005986,1.5684953
1739,1663945091200,0.15882361,-9.010772,1.5613167
1740,1663945091200,0.063110694,-8.955737,1.570888
1741,1663945091200,0.048454657,-8.915059,1.6546369
1742,1663945091200,0.11335997,-8.938987,1.6115661
1743,1663945091203,0.22342981,-8.934201,1.4919249
1744,1663945091203,0.20189442,-8.836096,1.288535
1745,1663945091209,0.1468595,-8.666205,1.2598212
1746,1663945091209,0.23539393,-8.623135,1.4584254
1747,1663945091213,0.42681974,-8.711669,1.6474584
1748,1663945091213,0.61106706,-8.857632,1.7123637
1749,1663945091218,0.76689965,-8.953344,1.6689938
1750,1663945091218,0.7070791,-8.967701,1.5828521
1751,1663945091223,0.6329016,-8.919845,1.6354942
1752,1663945091223,0.42203408,-8.814561,1.5804594
1753,1663945091228,0.48903313,-8.845667,1.4799608
1754,1663945091228,0.60388863,-8.881559,1.4727824
1755,1663945091233,0.6735796,-8.912666,1.5278172
1756,1663945091233,0.6472585,-8.910274,1.6354942
1757,1663945091237,0.58713883,-8.907881,1.7458632
1758,1663945091237,0.5129613,-8.867203,1.8487546
1759,1663945091243,0.47228336,-8.862417,1.9348962
1760,1663945091243,0.38614175,-8.838489,1.951646
1761,1663945091247,0.29042885,-8.752347,1.9564316
1762,1663945091247,0.20428723,-8.687741,2.0665014
1763,1663945091252,0.19232312,-8.620742,2.1622143
1764,1663945091252,0.122931264,-8.534301,2.233999
1765,1663945091259,-0.0065802624,-8.450552,2.2674985
1766,1663945091259,-0.04007978,-8.385946,2.2411776
1767,1663945091262,-0.061615184,-8.3428755,2.2172494
1768,1663945091263,-0.09990034,-8.33809,2.1837497
1769,1663945091268,-0.119042926,-8.328518,2.2148564
1770,1663945091268,-0.1381855,-8.32134,2.2148564
1771,1663945091273,-0.116650105,-8.369196,2.2698913
1772,1663945091273,-0.10707881,-8.362018,2.3060827
1773,1663945091277,-0.15014961,-8.381161,2.373082
1774,1663945091277,-0.18604197,-8.378768,2.41376
1775,1663945091282,-0.24586253,-8.347661,2.4352953
1776,1663945091282,-0.32243285,-8.280662,2.464009
1777,1663945091288,-0.36311084,-8.280662,2.3754747
1778,1663945091288,-0.3487539,-8.261519,2.2698913
1779,1663945091292,-0.3487539,-8.290234,2.1167507
1780,1663945091292,-0.3056831,-8.323732,2.018645
1781,1663945091297,-0.25064817,-8.390732,1.9205393
1782,1663945091297,-0.18364914,-8.402696,1.8415761
1783,1663945091302,-0.15732808,-8.405088,1.8463618
1784,1663945091302,-0.12143575,-8.376375,1.8415761
1785,1663945091307,-0.071186475,-8.328518,1.8750757
1786,1663945091307,-0.08793623,-8.251948,1.96361
1787,1663945091313,-0.05922236,-8.141878,2.0282164
1788,1663945091313,0.019740786,-8.079665,2.1047866
1789,1663945091316,0.07986046,-7.9860454,2.2148564
1790,1663945091316,0.14207384,-7.8520474,2.3419752
1791,1663945091321,0.16360925,-7.746763,2.440081
1792,1663945091321,0.17318054,-7.643872,2.5286152
1793,1663945091326,0.21385853,-7.5553374,2.6338995
1794,1663945091326,0.22103699,-7.524231,2.7463622
1795,1663945091332,0.180359,-7.4712896,2.8471599
1796,1663945091332,0.08225328,-7.449754,2.8782666
1797,1663945091337,0.005383851,-7.3923264,2.9309087
1798,1663945091337,-0.04965107,-7.3899336,2.9883363
1799,1663945091341,-0.13100705,-7.4042907,3.0792637
1800,1663945091341,-0.18364914,-7.425826,3.1582267
1801,1663945091347,-0.21475583,-7.478468,3.2036905
1802,1663945091347,-0.25782663,-7.5026956,3.2467613
1803,1663945091352,-0.253041,-7.55773,3.2850463
1804,1663945091352,-0.3080759,-7.5720873,3.344867
1805,1663945091357,-0.37986058,-7.600801,3.4121652
1806,1663945091357,-0.44925246,-7.6366935,3.4911282
1807,1663945091361,-0.5237291,-7.6630144,3.6059837
1808,1663945091361,-0.605085,-7.7036924,3.723232
1809,1663945091366,-0.68883383,-7.749156,3.8404803
1810,1663945091366,-0.7582257,-7.797013,3.9050865
1811,1663945091371,-0.81565344,-7.8400836,3.9314077
1812,1663945091371,-0.8850453,-7.9070826,3.9652061
1813,1663945091376,-0.9711869,-7.9429746,3.9795632
1814,1663945091376,-1.0190433,-7.995617,4.0680976
1815,1663945091382,-1.1413764,-8.019546,4.0944185
1816,1663945091382,-1.1940185,-8.046165,4.1111684
1817,1663945091388,-1.2514462,-8.1347,4.1207395
1818,1663945091400,-1.2873386,-8.201698,4.130311
1819,1663945091400,-1.2873386,-8.259127,4.113561
1820,1663945091400,-1.2514462,-8.326125,4.1231327
1821,1663945091400,-1.2466606,-8.402696,4.115954
1822,1663945091401,-1.1916257,-8.440981,4.1255255
1823,1663945091401,-1.119841,-8.512766,4.1350965
1824,1663945091405,-1.0935199,-8.558229,4.18056
1825,1663945091406,-1.0671989,-8.5678005,4.1997027
1826,1663945091411,-1.0262218,-8.589336,4.2068815
1827,1663945091411,-0.95443714,-8.62792,4.2427735
1828,1663945091415,-0.89461654,-8.66142,4.328915
1829,1663945091415,-0.8252247,-8.670991,4.3576293
1830,1663945091421,-0.7510472,-8.69492,4.403093
1831,1663945091421,-0.68883383,-8.735598,4.4581275
1832,1663945091425,-0.6625128,-8.773883,4.549354
1833,1663945091426,-0.6122635,-8.826525,4.6785665
1834,1663945091431,-0.5237291,-8.893523,4.731209
1835,1663945091431,-0.48035914,-8.977272,4.755137
1836,1663945091436,-0.44925246,-9.01795,4.795815
1837,1663945091436,-0.46839502,-9.044271,4.858028
1838,1663945091440,-0.50189453,-9.101699,4.9082775
1839,1663945091440,-0.5093721,-9.149555,4.9728837
1840,1663945091446,-0.5691927,-9.180962,5.035097
1841,1663945091446,-0.61704916,-9.216854,5.1143594
1842,1663945091451,-0.7510472,-9.245567,5.1670012
1843,1663945091451,-0.86111706,-9.226425,5.2076793
1844,1663945091455,-0.9975079,-9.226425,5.2363935
1845,1663945091455,-1.160519,-9.257532,5.25075
1846,1663945091461,-1.2993027,-9.276674,5.25075
1847,1663945091461,-1.375873,-9.317352,5.281857
1848,1663945091465,-1.4955142,-9.381958,5.2962136
1849,1663945091465,-1.5098711,-9.4585285,5.2794642
1850,1663945091469,-1.442872,-9.604491,5.2220364
1851,1663945091469,-1.3280165,-9.709775,5.224429
1852,1663945091474,-1.1964114,-9.820144,5.1813583
1853,1663945091474,-1.0743774,-9.9015,5.1550374
1854,1663945091479,-0.9496515,-9.97807,5.159823
1855,1663945091479,-0.767797,-10.042677,5.1789656
1856,1663945091485,-0.5620142,-10.109675,5.2028937
1857,1663945091485,-0.43968117,-10.107283,5.2363935
1858,1663945091489,-0.28414768,-10.131211,5.253143
1859,1663945091489,-0.0951147,-10.167104,5.2770715
1860,1663945091494,0.08703893,-10.210175,5.2794642
1861,1663945091494,0.18993029,-10.219746,5.2698927
1862,1663945091499,0.32632118,-10.217353,5.25075
1863,1663945091499,0.38614175,-10.164711,5.2292147
1864,1663945091505,0.42203408,-10.119247,5.1885366
1865,1663945091505,0.42921257,-10.066605,5.1526446
1866,1663945091509,0.4435695,-9.990034,5.0566325
1867,1663945091511,0.4244269,-9.91825,4.9992046
1868,1663945091514,0.41006997,-9.84168,4.956134
1869,1663945091514,0.38374892,-9.757931,5.0542397
1870,1663945091520,0.42203408,-9.6834545,4.838886
1871,1663945091520,0.38614175,-9.559028,4.7694936
1872,1663945091524,0.30239296,-9.401101,4.764708
1873,1663945091524,0.2641078,-9.276674,4.8269215
1874,1663945091529,0.20907287,-9.130413,4.858028
1875,1663945091529,0.17318054,-8.979665,4.903492
1876,1663945091534,0.10139586,-8.816954,4.929813
1877,1663945091534,0.08943175,-8.690134,5.0015974
1878,1663945091539,0.122931264,-8.579764,5.1287165
1879,1663945091539,0.21385853,-8.541479,5.2722855
1880,1663945091544,0.30717862,-8.565408,5.439783
1881,1663945091544,0.43878385,-8.615956,5.602495
1882,1663945091549,0.5919245,-8.726026,5.727221
1883,1663945091549,0.67118675,-8.833703,5.808577
1884,1663945091553,0.7788638,-8.953344,5.8827543
1885,1663945091554,0.82911307,-9.065806,5.9042897
1886,1663945091560,0.88414794,-9.204889,5.9066825
1887,1663945091560,0.8745767,-9.362816,5.889933
1888,1663945091564,0.88414794,-9.56142,5.8396835
1889,1663945091564,0.8554341,-9.77468,5.77747
1890,1663945091568,0.78843504,-9.985249,5.7009
1891,1663945091568,0.7477571,-10.262816,5.619245
1892,1663945091574,0.65922266,-10.545468,5.4876394
1893,1663945091574,0.5344968,-10.813464,5.3440704
1894,1663945091578,0.40289152,-11.048261,5.2076793
1895,1663945091578,0.31914273,-11.3019,5.2866426
1896,1663945091584,0.3047858,-11.570195,4.903492
1897,1663945091584,0.3047858,-11.802299,4.4246283
1898,1663945091588,0.22342981,-11.95544,4.0776687
1899,1663945091588,0.1468595,-12.053844,3.7567315
1900,1663945091593,0.048454657,-12.142379,3.505485
1901,1663945091593,-0.07836494,-12.175878,3.2706895
1902,1663945091598,-0.20039889,-12.142379,2.9955149
1903,1663945091598,-0.26739794,-12.101701,2.7296124
1904,1663945091603,-0.2961118,-12.0227375,2.5094728
1905,1663945091603,-0.45164528,-11.881262,2.181357
1906,1663945091608,-0.51176494,-11.764013,1.9468603
1907,1663945091608,-0.54287165,-11.697015,1.7362919
1908,1663945091614,-0.4325027,-11.677872,1.5565311
1909,1663945091614,-0.31286156,-11.65155,1.4536397
1910,1663945091618,-0.1788635,-11.661122,1.3651053
1911,1663945091618,0.034097724,-11.7018,1.288535
1912,1663945091623,0.23060828,-11.728121,1.2861422
1913,1663945091623,0.4244269,-11.744871,1.3818551
1914,1663945091628,0.6472585,-11.809477,1.4703895
1915,1663945091628,0.89371926,-11.869298,1.6115661
1916,1663945091633,1.1114662,-11.943475,1.8224336
1917,1663945091633,1.3199408,-11.967403,2.0904298
1918,1663945091637,1.492224,-12.008381,2.41376
1919,1663945091637,1.5711871,-12.046665,2.777469
1920,1663945091643,1.6860427,-12.044272,3.1701908
1921,1663945091643,1.6669,-12.010774,3.5844483
1922,1663945091648,1.5807585,-11.931511,3.969992
1923,1663945091648,1.4491532,-11.79512,4.3408794
1924,1663945091653,1.2960125,-11.627623,4.690531
1925,1663945091653,1.0899308,-11.417054,4.970491
1926,1663945091658,0.8602197,-11.129617,5.226822
1927,1663945091658,0.65682983,-10.871191,5.5187464
1928,1663945091663,0.4339982,-10.540683,5.535496
1929,1663945091663,0.18275183,-10.224531,5.4613185
1930,1663945091667,-0.011365907,-9.913465,5.5163536
1931,1663945091667,-0.24107689,-9.666704,5.5283175
1932,1663945091673,-0.39421752,-9.434601,5.4613185
1933,1663945091673,-0.49471608,-9.24796,5.3536415
1934,1663945091678,-0.59312093,-9.099306,5.169394
1935,1663945091678,-0.6553343,-8.982058,5.0183473
1936,1663945091683,-0.74865437,-8.898309,4.671388
1937,1663945091683,-0.8539386,-8.793025,4.3265224
1938,1663945091688,-0.97836536,-8.697312,4.0537405
1939,1663945091688,-1.1365907,-8.6013,3.8261235
1940,1663945091692,-1.3328022,-8.486444,3.5365918
1941,1663945091692,-1.5218352,-8.330911,3.2300115
1942,1663945091698,-1.7542381,-8.184949,2.9165516
1943,1663945091698,-1.9552352,-8.012366,2.5788646
1944,1663945091703,-2.1705892,-7.8400836,2.205285
1945,1663945091703,-2.3694925,-7.6462646,1.8104694
1946,1663945091709,-2.5704896,-7.4593253,1.3794622
1947,1663945091709,-2.7885356,-7.2726855,0.9412766
1948,1663945091711,-2.9967113,-7.1195445,0.5054838
1949,1663945091715,-3.2120652,-6.956833,0.06999006
1950,1663945091715,-3.3559337,-6.8225355,-0.3681956
1951,1663945091721,-3.5114672,-6.719644,-0.75613195
1952,1663945091721,-3.6478581,-6.667002,-1.1033903
1953,1663945091725,-3.772285,-6.6574306,-1.4407784
1954,1663945091725,-3.8488553,-6.7172513,-1.6971095
1955,1663945091729,-3.906582,-6.8129644,-1.9507487
1956,1663945091730,-3.9233317,-6.997511,-2.1254246
1957,1663945091734,-3.8778682,-7.2559357,-2.257329
1958,1663945091734,-3.8368912,-7.5864444,-2.3410778
1959,1663945091739,-3.8057845,-7.928618,-2.3769703
1960,1663945091739,-3.7914274,-8.347661,-2.3769703
1961,1663945091745,-3.7794633,-8.793025,-2.2884357
1962,1663945091745,-3.8273199,-9.262318,-2.1900308
1963,1663945091749,-3.8273199,-9.697811,-2.0368903
1964,1663945091749,-3.8970108,-10.12164,-1.8741783
1965,1663945091754,-3.935296,-10.495219,-1.6851454
1966,1663945091754,-3.9951165,-10.849357,-1.4670994
1967,1663945091759,-4.0238304,-11.153544,-1.23021
1968,1663945091759,-4.014259,-11.443376,-0.971486
1969,1663945091764,-3.9975092,-11.65155,-0.72502524
1970,1663945091764,-3.9448671,-11.802299,-0.45194438
1971,1663945091769,-3.8560338,-11.886047,-0.16719848
1972,1663945091769,-3.7651064,-11.902797,0.096311115
1973,1663945091774,-3.6143587,-11.850155,0.39541394
1974,1663945091775,-3.4109688,-11.752049,0.65653074
1975,1663945091779,-3.1498518,-11.586945,0.895813
1976,1663945091780,-2.8746774,-11.409576,1.1494522
1977,1663945091784,-2.5369902,-11.194222,1.3698909
1978,1663945091784,-2.1131616,-10.909476,1.5206388
1979,1663945091789,-1.794916,-10.6459675,1.666601
1980,1663945091789,-1.4500505,-10.406685,1.803291
1981,1663945091794,-1.0743774,-10.169497,1.8774685
1982,1663945091794,-0.71276206,-9.939785,1.910968
1983,1663945091799,-0.34636107,-9.726525,1.8918254
1984,1663945091799,-0.016151553,-9.556635,1.9085752
1985,1663945091804,0.30717862,-9.408279,1.8750757
1986,1663945091804,0.6257231,-9.238389,1.7673986
1987,1663945091808,0.86979103,-9.075378,1.6905292
1988,1663945091808,1.1090733,-8.919845,1.625923
1989,1663945091814,1.3151551,-8.7882395,1.4751751
1990,1663945091814,1.4611173,-8.711669,1.3603196
1991,1663945091818,1.57358,-8.618349,1.3100704
1992,1663945091818,1.7099708,-8.515159,1.1688938
1993,1663945091825,1.7748762,-8.481659,1.0776675
1994,1663945091825,1.8562322,-8.49123,0.9699905
1995,1663945091828,1.9998015,-8.460124,0.86231345
1996,1663945091829,2.1218355,-8.467302,0.79770726
1997,1663945091833,2.2223341,-8.510373,0.7498508
1998,1663945091833,2.2797618,-8.572586,0.71395844
1999,1663945091838,2.2989044,-8.574979,0.6900302
2000,1663945091839,2.3374887,-8.687741,0.6469594
2001,1663945091843,2.373381,-8.702098,0.77617186
2002,1663945091843,2.2390838,-8.73799,0.4959125
2003,1663945091848,2.1194427,-8.843274,0.31166515
2004,1663945091848,1.9136599,-8.938987,0.18005991
2005,1663945091853,1.7027924,-9.015557,0.084346995
2006,1663945091853,1.5209379,-9.120842,0.091525465
2007,1663945091858,1.3151551,-9.200104,0.06281159
2008,1663945091858,1.1497513,-9.26471,0.029312078
2009,1663945091864,0.9415757,-9.37478,0.036490545
2010,1663945091864,0.78843504,-9.468101,0.014656039
2011,1663945091868,0.62093747,-9.542277,0.012263216
2012,1663945091868,0.4651049,-9.599706,0.055633128
2013,1663945091873,0.2952145,-9.6738825,0.11066805
2014,1663945091873,0.10378868,-9.697811,0.16570297
2015,1663945091878,-0.10229317,-9.74836,0.22313072
2016,1663945091878,-0.29132617,-9.80818,0.3475575
2017,1663945091883,-0.43968117,-9.827323,0.47676992
2018,1663945091883,-0.6266204,-9.817751,0.44805604
2019,1663945091891,-0.81565344,-9.820144,0.5270192
2020,1663945091891,-0.93529457,-9.827323,0.64935225
2021,1663945091919,-1.038186,-9.796216,0.75702924
2022,1663945091919,-1.146162,-9.769895,0.8527422
2023,1663945091919,-1.1940185,-9.738789,0.9340981
2024,1663945091919,-1.2442678,-9.704989,1.0633105
2025,1663945091919,-1.308874,-9.681062,1.1183455
2026,1663945091919,-1.3734802,-9.609277,1.1087742
2027,1663945091920,-1.3782659,-9.573384,1.1111671
2028,1663945091920,-1.3543376,-9.520742,1.180858
2029,1663945091920,-1.3184453,-9.463314,1.2239288
2030,1663945091920,-1.2897314,-9.4178505,1.288535
2031,1663945091920,-1.2658032,-9.35803,1.3004991
2032,1663945091920,-1.2729816,-9.310174,1.3124632
2033,1663945091922,-1.2753744,-9.279067,1.288535
2034,1663945091922,-1.2897314,-9.257532,1.2574283
2035,1663945091927,-1.3184453,-9.245567,1.2406785
2036,1663945091927,-1.3375878,-9.2336035,1.1641082
2037,1663945091931,-1.3399807,-9.224032,1.0944172
2038,1663945091931,-1.3710874,-9.235996,1.0322039
2039,1663945091937,-1.4237294,-9.24796,0.94606227
2040,1663945091937,-1.4620147,-9.250353,0.87188476
2041,1663945091943,-1.5050855,-9.245567,0.8216355
2042,1663945091943,-1.5529419,-9.255139,0.75463647
2043,1663945091947,-1.5768701,-9.283853,0.67806613
2044,1663945091947,-1.6007984,-9.310174,0.60388863
2045,1663945091952,-1.579263,-9.353245,0.5557331
2046,1663945091952,-1.5864414,-9.367601,0.4552345
2047,1663945091957,-1.5768701,-9.384352,0.39541394
2048,1663945091957,-1.5744773,-9.384352,0.3475575
2049,1663945091962,-1.550549,-9.389137,0.33080772
2050,1663945091962,-1.5409778,-9.39153,0.35234314
2051,1663945091967,-1.5314065,-9.413065,0.38344982
2052,1663945091967,-1.5074782,-9.405887,0.43609193
2053,1663945091971,-1.4787644,-9.413065,0.4552345
2054,1663945091971,-1.4452649,-9.420243,0.5174479
2055,1663945091977,-1.4045869,-9.415458,0.57009
2056,1663945091977,-1.3663018,-9.413065,0.6349953
2057,1663945091982,-1.3495519,-9.3867445,0.69242305
2058,1663945091982,-1.3471591,-9.401101,0.7785647
2059,1663945091986,-1.3591232,-9.405887,0.80967134
2060,1663945091986,-1.3328022,-9.422636,0.85513496
2061,1663945091991,-1.3160524,-9.42503,0.8790632
2062,1663945091991,-1.2083755,-9.465707,0.9077771
2063,1663945091996,-1.1174482,-9.492028,0.92213404
2064,1663945091996,-1.0334003,-9.501599,0.89102733
2065,1663945092001,-0.93529457,-9.523135,0.89342016
2066,1663945092001,-0.86111706,-9.56142,0.9077771
2067,1663945092006,-0.7390831,-9.551849,0.9125627
2068,1663945092006,-0.6553343,-9.537492,0.9029915
2069,1663945092011,-0.60029936,-9.547063,0.9029915
2070,1663945092011,-0.5452645,-9.5303135,0.9245269
2071,1663945092016,-0.4564309,-9.525528,0.9245269
2072,1663945092016,-0.41814575,-9.515957,0.95802635
2073,1663945092021,-0.37507495,-9.503992,0.94606227
2074,1663945092021,-0.36550367,-9.501599,0.9197412
2075,1663945092026,-0.33439696,-9.48485,0.9245269
2076,1663945092026,-0.32004002,-9.501599,0.8766704
2077,1663945092031,-0.31764722,-9.460921,0.8527422
2078,1663945092031,-0.33200413,-9.465707,0.8072785
2079,1663945092036,-0.33918262,-9.470493,0.7259226
2080,1663945092036,-0.35114673,-9.460921,0.6302097
2081,1663945092041,-0.37507495,-9.475279,0.5629115
2082,1663945092041,-0.360718,-9.480064,0.5174479
2083,1663945092045,-0.36550367,-9.501599,0.43130627
2084,1663945092046,-0.34396824,-9.501599,0.40977088
2085,1663945092050,-0.3487539,-9.513564,0.39780676
2086,1663945092050,-0.33918262,-9.542277,0.39780676
2087,1663945092055,-0.3152544,-9.554242,0.43609193
2088,1663945092056,-0.30089745,-9.568599,0.46241298
2089,1663945092060,-0.29132617,-9.599706,0.48873404
2090,1663945092060,-0.28414768,-9.61167,0.5341976
2091,1663945092065,-0.32961133,-9.637991,0.599103
2092,1663945092065,-0.3702893,-9.633204,0.6828518
2093,1663945092070,-0.30089745,-9.805787,0.83120674
2094,1663945092070,-0.360718,-9.726525,0.91495556
2095,1663945092075,-0.55722857,-9.56142,0.8742776
2096,1663945092075,-0.686441,-9.506385,0.9101699
2097,1663945092080,-0.74147594,-9.472886,0.9699905
2098,1663945092080,-0.7965108,-9.472886,1.0250254
2099,1663945092085,-0.8108678,-9.48485,1.0920244
2100,1663945092086,-0.834796,-9.482457,1.137488
2101,1663945092090,-0.87308115,-9.503992,1.1712867
2102,1663945092090,-0.91854477,-9.503992,1.2023934
2103,1663945092094,-0.9496515,-9.506385,1.2502499
2104,1663945092094,-0.9305089,-9.475279,1.274178
2105,1663945092100,-0.95682997,-9.501599,1.3196417
2106,1663945092100,-0.983151,-9.480064,1.3746766
2107,1663945092105,-0.97836536,-9.520742,1.4249259
2108,1663945092105,-0.78454673,-9.767502,1.6091732
2109,1663945092110,-0.95443714,-9.537492,1.4823537
2110,1663945092110,-1.0935199,-9.381958,1.3268201
2111,1663945092115,-1.1772687,-9.231211,1.1784651
2112,1663945092115,-1.1940185,-9.197711,1.0896316
2113,1663945092120,-1.2299109,-9.151948,0.99631155
2114,1663945092120,-1.268196,-9.151948,0.895813
2115,1663945092125,-1.2777673,-9.142377,0.79531443
2116,1663945092125,-1.3304094,-9.135199,0.69242305
2117,1663945092130,-1.3423735,-9.123235,0.5629115
2118,1663945092130,-1.3734802,-9.094521,0.40737805
2119,1663945092135,-1.3663018,-9.104092,0.2973082
2120,1663945092135,-1.3974084,-9.075378,0.1680958
2121,1663945092140,-1.3974084,-9.099306,0.021834506
2122,1663945092140,-1.4261223,-9.101699,-0.10737792
2123,1663945092145,-1.4476577,-9.1256275,-0.15284155
2124,1663945092145,-1.4596218,-9.168997,-0.19351953
2125,1663945092150,-1.4644074,-9.214461,-0.20787647
2126,1663945092150,-1.4763715,-9.305388,-0.24616162
2127,1663945092154,-1.4333007,-9.384352,-0.22941187
2128,1663945092154,-1.4333007,-9.463314,-0.22462623
2129,1663945092159,-1.4117653,-9.640384,-0.18155542
2130,1663945092159,-1.1557333,-9.980463,0.091525465
2131,1663945092164,-1.3112668,-9.844072,-0.08344969
2132,1663945092164,-1.4285151,-9.772287,-0.25573292
2133,1663945092169,-1.4285151,-9.786645,-0.25812575
2134,1663945092169,-1.375873,-9.8727865,-0.22941187
2135,1663945092174,-1.2658032,-9.942178,-0.18155542
2136,1663945092174,-1.1988041,-10.037891,-0.07627122
2137,1663945092179,-1.1006985,-10.059426,-0.016450657
2138,1663945092179,-1.0597214,-10.061819,0.050847482
2139,1663945092184,-1.0453644,-10.028319,0.12502499
2140,1663945092184,-1.0022936,-9.966106,0.17766708
2141,1663945092189,-0.95443714,-9.934999,0.2111666
2142,1663945092190,-0.9233304,-9.882358,0.23030917
2143,1663945092194,-0.9209376,-9.836894,0.24227329
2144,1663945092194,-0.9305089,-9.798609,0.232702
2145,1663945092200,-0.9592228,-9.772287,0.21595225
2146,1663945092200,-0.99032944,-9.716953,0.19202402
2147,1663945092205,-1.023829,-9.700204,0.13938192
2148,1663945092205,-1.0262218,-9.702597,0.12023934
2149,1663945092209,-1.0695918,-9.731609,0.15134603
2150,1663945092209,-1.1222339,-9.769895,0.12981063
2151,1663945092214,-1.1844472,-9.786645,0.17527425
2152,1663945092214,-1.2083755,-9.829716,0.2015953
2153,1663945092219,-1.2203395,-9.870394,0.26620153
2154,1663945092220,-1.253839,-9.932607,0.3068795
2155,1663945092224,-1.2921243,-9.982856,0.36909288
2156,1663945092224,-1.308874,-10.049855,0.44805604
2157,1663945092228,-1.3974084,-10.131211,0.5174479
2158,1663945092228,-1.4404793,-10.171889,0.5341976
2159,1663945092233,-1.4069797,-10.171889,0.35712877
2160,1663945092233,-1.6824534,-10.385149,0.5844469
2161,1663945092238,-1.8619151,-10.555039,0.7689934
2162,1663945092238,-1.9624137,-10.6770735,0.8599206
2163,1663945092243,-2.065305,-10.768001,0.92213404
2164,1663945092243,-2.1275184,-10.8759775,0.9556335
2165,1663945092248,-2.187339,-10.952547,0.9604192
2166,1663945092248,-2.2857437,-11.017154,0.89342016
2167,1663945092253,-2.3503501,-11.06501,0.8216355
2168,1663945092253,-2.4364917,-11.103295,0.7498508
2169,1663945092258,-2.4795625,-11.136795,0.6828518
2170,1663945092258,-2.5585256,-11.1631155,0.6302097
2171,1663945092263,-2.5896323,-11.1631155,0.6230312
2172,1663945092263,-2.6446671,-11.134402,0.60388863
2173,1663945092268,-2.620739,-11.100903,0.57009
2174,1663945092268,-2.5178475,-11.072188,0.59671015
2175,1663945092273,-2.446063,-11.057832,0.6302097
2176,1663945092273,-2.391028,-10.983654,0.6326025
2177,1663945092278,-2.3407788,-10.931012,0.70199436
2178,1663945092279,-2.4101706,-10.885549,0.7809575
2179,1663945092283,-2.3551357,-10.892727,0.86949193
2180,1663945092283,-2.3192434,-10.921441,1.0010972
2181,1663945092288,-2.3503501,-10.945369,1.0680962
2182,1663945092289,-2.4269204,-10.947762,1.0537393
2183,1663945092293,-2.5585256,-10.952547,1.0345967
2184,1663945092293,-2.608775,-10.986047,1.0058829
2185,1663945092298,-2.728416,-11.009975,0.9699905
2186,1663945092298,-2.8818557,-11.06501,0.9556335
2187,1663945092303,-2.9775686,-11.141581,0.86949193
2188,1663945092303,-3.0086753,-11.270793,0.70199436
2189,1663945092308,-2.9799614,-11.392827,0.56530434
2190,1663945092308,-2.9967113,-11.503196,0.56769717
2191,1663945092312,-2.850749,-11.646765,0.6373881
2192,1663945092312,-2.687738,-11.814262,0.83120674
2193,1663945092318,-2.565704,-11.962618,0.9987044
2194,1663945092318,-2.4340987,-12.065808,1.1712867
2195,1663945092322,-2.3216362,-12.120843,1.3363914
2196,1663945092322,-2.2139592,-12.163914,1.5158532
2197,1663945092328,-2.184946,-12.139986,1.6977077
2198,1663945092328,-2.012663,-12.163914,1.7913269
2199,1663945092333,-1.957628,-12.130414,1.8511474
2200,1663945092333,-1.9073788,-12.104094,1.8463618
2201,1663945092337,-1.8954146,-12.04188,1.7697915
2202,1663945092338,-1.9336998,-12.046665,1.707279
2203,1663945092343,-1.9767706,-12.027523,1.5948163
2204,1663945092343,-2.0581267,-12.001202,1.4201403
2205,1663945092347,-2.117947,-12.05863,1.3316058
2206,1663945092348,-2.1323042,-12.221342,1.2406785
2207,1663945092353,-2.3790638,-12.18545,1.3124632
2208,1663945092353,-2.5585256,-12.197413,1.3459628
2209,1663945092358,-2.8339994,-12.199806,1.314856
2210,1663945092358,-2.7765715,-12.235699,1.2837493
2211,1663945092362,-2.687738,-12.276377,1.329213
2212,1663945092362,-2.580061,-12.329019,1.3339987
2213,1663945092367,-2.4867408,-12.352947,1.3387842
2214,1663945092368,-2.4221346,-12.419946,1.3722838
2215,1663945092373,-2.364707,-12.474981,1.4201403
2216,1663945092373,-2.4029922,-12.518052,1.4967105
2217,1663945092377,-2.3192434,-12.649956,1.6378871
2218,1663945092377,-2.3024936,-12.748062,1.803291
2219,1663945092382,-2.3312075,-12.838989,1.8798612
2220,1663945092382,-2.3551357,-12.905988,1.9181465
2221,1663945092387,-2.3479571,-12.951451,1.8966111
2222,1663945092387,-2.364707,-13.023236,1.8894325
2223,1663945093416,-2.8220353,-9.899107,0.060418773
2224,1663945093416,-2.7212377,-9.796216,0.024227329
2225,1663945093416,-2.5896323,-9.690633,0.093918286
2226,1663945093416,-2.4675984,-9.61167,0.13938192
2227,1663945093416,-2.3336003,-9.523135,0.24466611
2228,1663945093416,-2.1924238,-9.4585285,0.3595216
2229,1663945093416,-2.0605195,-9.403494,0.4528417
2230,1663945093416,-1.931307,-9.31496,0.5605187
2231,1663945093416,-1.8475581,-9.26471,0.6948159
2232,1663945093416,-1.7709879,-9.216854,0.7785647
2233,1663945093417,-1.701596,-9.200104,0.88384885
2234,1663945093417,-1.646561,-9.176176,0.9269197
2235,1663945093422,-1.6079768,-9.16152,0.8886345
2236,1663945093422,-1.5744773,-9.16152,0.89102733
2237,1663945093427,-1.605584,-9.116056,0.82642114
2238,1663945093427,-1.6393826,-9.106484,0.747458
2239,1663945093432,-1.6513467,-9.1256275,0.6517451
2240,1663945093432,-1.6633109,-9.120842,0.58683974
2241,1663945093437,-1.7135601,-9.123235,0.51505506
2242,1663945093437,-1.7542381,-9.120842,0.381057
2243,1663945093442,-1.8020946,-9.092128,0.26859435
2244,1663945093442,-1.8188443,-9.056235,0.18723837
2245,1663945093446,-1.8164514,-9.039486,0.18484555
2246,1663945093446,-1.8188443,-9.041879,0.1274178
2247,1663945093452,-1.7805592,-9.0347,0.10827523
2248,1663945093452,-1.7614166,-9.0347,0.06281159
2249,1663945093456,-1.6920247,-9.015557,0.0317049
2250,1663945093457,-1.634597,-9.049057,0.026620151
2251,1663945093462,-1.5433706,-9.053843,-0.018843478
2252,1663945093462,-1.4141582,-9.0849495,-0.05712864
2253,1663945093467,-1.3064811,-9.104092,-0.08344969
2254,1663945093467,-1.1820544,-9.123235,-0.11216356
2255,1663945093473,-1.0815558,-9.163913,-0.16719848
2256,1663945093473,-0.95682997,-9.14477,-0.14566308
2257,1663945093476,-0.8012965,-9.171391,-0.13130614
2258,1663945093477,-0.6433702,-9.2336035,-0.14327025
2259,1663945093482,-0.5189434,-9.267103,-0.16241284
2260,1663945093482,-0.42053857,-9.300603,-0.16241284
2261,1663945093488,-0.34396824,-9.341281,-0.2318047
2262,1663945093488,-0.2434697,-9.367601,-0.24616162
2263,1663945093492,-0.20997019,-9.372387,-0.2748755
2264,1663945093492,-0.08315059,-9.403494,-0.2533401
2265,1663945093496,0.010169496,-9.444172,-0.24376881
2266,1663945093496,0.08225328,-9.446565,-0.24855445
2267,1663945093502,0.21625134,-9.472886,-0.20787647
2268,1663945093502,0.27128628,-9.508778,-0.17916259
2269,1663945093506,0.33110684,-9.54467,-0.16241284
2270,1663945093507,0.40289152,-9.630812,-0.04995017
2271,1663945093511,0.54406804,-9.637991,-0.009272188
2272,1663945093512,0.5344968,-9.623633,-0.06909275
2273,1663945093516,0.5416752,-9.633204,-0.06430711
2274,1663945093516,0.5416752,-9.630812,-0.014057833
2275,1663945093521,0.5608178,-9.618848,0.00029910283
2276,1663945093521,0.5703891,-9.623633,0.026620151
2277,1663945093526,0.5943173,-9.626026,0.06999006
2278,1663945093526,0.6233303,-9.645169,0.07956135
2279,1663945093531,0.65922266,-9.657133,0.12263216
2280,1663945093531,0.65922266,-9.678668,0.12981063
2281,1663945093536,0.6831509,-9.678668,0.12023934
2282,1663945093536,0.721436,-9.697811,0.10827523
2283,1663945093541,0.7692925,-9.731609,0.1058824
2284,1663945093541,0.79800636,-9.7145605,0.091525465
2285,1663945093546,0.81954175,-9.716953,0.12023934
2286,1663945093546,0.8147561,-9.690633,0.11306087
2287,1663945093551,0.73579293,-9.6427765,0.14416756
2288,1663945093551,0.87936234,-9.640384,0.17766708
2289,1663945093555,0.8985049,-9.606884,0.24945176
2290,1663945093555,0.86979103,-9.568599,0.36430725
2291,1663945093561,0.8003992,-9.508778,0.41934216
2292,1663945093561,0.71665037,-9.456136,0.48394838
2293,1663945093565,0.66400826,-9.3867445,0.5246264
2294,1663945093566,0.6158527,-9.324531,0.5844469
2295,1663945093571,0.5488537,-9.26471,0.60388863
2296,1663945093571,0.5632106,-9.362816,0.8216355
2297,1663945093575,0.42203408,-9.24796,0.6756733
2298,1663945093576,0.22821546,-9.197711,0.625424
2299,1663945093584,0.1372882,-9.18814,0.6876374
2300,1663945093585,0.034097724,-9.183354,0.7929216
2301,1663945093586,-0.08793623,-9.180962,0.8240283
2302,1663945093586,-0.20039889,-9.183354,0.84795654
2303,1663945093591,-0.31286156,-9.202497,0.8527422
2304,1663945093591,-0.41814575,-9.231211,0.9077771
2305,1663945093595,-0.54287165,-9.262318,0.9245269
2306,1663945093595,-0.69601226,-9.283853,0.9245269
2307,1663945093601,-0.8539386,-9.346066,0.9532407
2308,1663945093601,-1.0166506,-9.355638,0.96520483
2309,1663945093605,-1.2107682,-9.401101,0.9532407
2310,1663945093605,-1.2705889,-9.441779,0.9699905
2311,1663945093610,-1.3734802,-9.499207,0.96759766
2312,1663945093610,-1.4691931,-9.501599,0.9532407
2313,1663945093615,-1.5840486,-9.537492,0.8766704
2314,1663945093615,-1.6199409,-9.657133,0.8982058
2315,1663945093621,-1.7183458,-9.609277,0.8383852
2316,1663945093621,-1.8523438,-9.508778,0.52941203
2317,1663945093625,-1.9145572,-9.446565,0.31405798
2318,1663945093626,-1.9743778,-9.448957,0.25184458
2319,1663945093630,-2.0006988,-9.470493,0.17048861
2320,1663945093630,-1.9935204,-9.453743,0.089132644
2321,1663945093635,-2.0078773,-9.489635,0.04366901
2322,1663945093635,-1.9911275,-9.513564,0.060418773
2323,1663945093640,-1.9743778,-9.525528,0.07956135
2324,1663945093640,-1.9336998,-9.537492,0.07477571
2325,1663945093645,-1.9624137,-9.575777,0.048454657
2326,1663945093645,-1.9217356,-9.661919,0.1274178
2327,1663945093650,-1.8667008,-9.757931,0.19441684
2328,1663945093651,-1.8044873,-9.827323,0.20398813
2329,1663945093655,-1.7614166,-9.8727865,0.18005991
2330,1663945093655,-1.7135601,-9.925428,0.13220344
2331,1663945093660,-1.7135601,-10.004392,0.084346995
2332,1663945093660,-1.6274185,-10.131211,0.07956135
2333,1663945093665,-1.5433706,-10.315758,0.21595225
2334,1663945093665,-1.6007984,-10.250853,0.084346995
2335,1663945093669,-1.715953,-10.226924,-0.023629123
2336,1663945093670,-1.6031911,-10.279566,-0.04755735
2337,1663945093674,-1.5290136,-10.349257,0.007477571
2338,1663945093675,-1.4404793,-10.406685,0.017048862
2339,1663945093679,-1.3423735,-10.47847,0.1369891
2340,1663945093679,-1.2705889,-10.555039,0.1680958
2341,1663945093685,-1.1724831,-10.588539,0.19202402
2342,1663945093685,-1.1246266,-10.624432,0.23509483
2343,1663945093691,-0.95682997,-10.696217,0.27337998
2344,1663945093691,-0.81565344,-10.746466,0.33320054
2345,1663945093694,-0.6577271,-10.827822,0.40737805
2346,1663945093695,-0.5452645,-10.871191,0.44805604
2347,1663945093700,-0.5667999,-10.921441,0.52223355
2348,1663945093700,-0.37746778,-10.98844,0.625424
2349,1663945093704,-0.25782663,-11.045868,0.6972087
2350,1663945093705,-0.23389842,-11.057832,0.7857431
2351,1663945093711,-0.20039889,-11.0913315,0.85513496
2352,1663945093711,-0.20997019,-11.096117,0.8982058
2353,1663945093714,-0.19082761,-11.120045,0.9771689
2354,1663945093714,-0.13579269,-11.273186,1.070489
2355,1663945093719,-0.18125631,-11.299507,1.302892
2356,1663945093719,-0.48993045,-11.074581,0.98913306
2357,1663945093724,-0.84436727,-10.897512,0.7689934
2358,1663945093724,-0.9616156,-10.86162,0.69960153
2359,1663945093729,-1.0935199,-10.9070835,0.70678
2360,1663945093729,-1.2849457,-10.892727,0.7163513
2361,1663945093734,-1.5337993,-10.904691,0.6900302
2362,1663945093734,-1.7590238,-10.897512,0.7043872
2363,1663945093739,-1.9695921,-10.940583,0.6828518
2364,1663945093739,-2.1705892,-10.911869,0.64217377
2365,1663945093743,-2.4197419,-10.887941,0.6684948
2366,1663945093743,-2.6159534,-10.885549,0.6469594
2367,1663945093748,-2.9273193,-10.864013,0.6445666
2368,1663945093748,-3.0517461,-10.849357,0.6014958
2369,1663945093753,-3.1809585,-10.854442,0.625424
2370,1663945093753,-3.3176486,-10.8664055,0.7091728
2371,1663945093759,-3.3870404,-10.885549,0.7785647
2372,1663945093759,-3.528217,-10.911869,0.9317053
2373,1663945093763,-3.4277184,-10.935798,0.97477615
2374,1663945093763,-3.3607194,-11.067403,1.1470593
2375,1663945093768,-3.3487554,-11.189437,1.4273187
2376,1663945093768,-3.446861,-11.199008,1.5493526
2377,1663945093773,-3.4995031,-11.210972,1.5397813
2378,1663945093774,-3.5162528,-11.215758,1.5876378
2379,1663945093778,-3.4947174,-11.273186,1.7171494
2380,1663945093779,-3.4516466,-11.354542,1.8391833
2381,1663945093783,-3.3966117,-11.417054,1.9612173
2382,1663945093783,-3.3511481,-11.51516,1.9995024
2383,1663945093788,-3.3296127,-11.632408,2.0401804
2384,1663945093788,-3.2336006,-11.697015,2.006681
2385,1663945093793,-3.121138,-11.773584,1.9325033
2386,1663945093793,-2.9943185,-11.831013,1.9564316
2387,1663945093798,-2.9225338,-11.919547,2.0018952
2388,1663945093799,-2.850749,-12.008381,2.0904298
2389,1663945093803,-2.755036,-12.070594,2.1454647
2390,1663945093803,-2.6350958,-12.087343,2.167
2391,1663945093808,-2.5441687,-12.075379,2.1717856
2392,1663945093808,-2.46042,-12.096915,2.205285
2393,1663945093813,-2.4101706,-12.099308,2.233999
2394,1663945093813,-2.3886352,-12.037094,2.2124636
2395,1663945093818,-2.1801605,-11.871691,2.0377877
2396,1663945093818,-2.2115662,-11.909976,1.9468603
2397,1663945093823,-2.6183462,-12.008381,2.0617158
2398,1663945093823,-3.011068,-11.972189,1.9707886
2399,1663945093828,-3.2001011,-11.852548,1.7096717
2400,1663945093828,-3.4229329,-11.941082,1.4679967
2401,1663945093832,-3.8153558,-12.116057,1.4871392
2402,1663945093832,-4.069294,-12.223735,1.3387842
2403,1663945093838,-4.193721,-12.295519,1.0944172
2404,1663945093838,-4.2128634,-12.362518,0.8790632
