"Time (s),""Linear Acceleration x (m/s^2)"",""Linear Acceleration y (m/s^2)"",""Linear Acceleration z (m/s^2)"""
1.753493820E-1,-1.708959341E-1,3.613853455E-1,5.000591278E-2
1.951208930E-1,-6.485891342E-2,-5.438003540E-1,3.705501556E-2
2.148907890E-1,-9.833538532E-1,5.672073364E-2,2.393147469E0
2.346622990E-1,-2.155399084E0,3.634028435E-1,3.261227131E0
2.544321950E-1,-7.959969044E-1,-3.297257423E-1,5.824878693E0
2.742036530E-1,-2.123125553E0,-2.494306564E-1,1.699141026E0
2.939735490E-1,-7.388430238E-1,1.474618912E-2,-1.610682487E0
3.137450590E-1,-1.428964138E-1,-3.325519562E-1,1.708859444E0
3.335149550E-1,-2.782275677E-1,-3.900890350E-1,3.631201267E0
3.532864660E-1,-1.178956032E-1,2.903575897E-1,2.356887817E0
3.730563090E-1,1.924501657E-1,6.746978760E-1,5.874795914E-1
3.928278200E-1,1.772704124E-1,3.014998436E-1,-3.012456894E-1
4.125977160E-1,-1.444147587E0,7.800197601E-2,5.932807922E-3
4.323692260E-1,-7.006376982E-1,-9.451923370E-1,-9.939174652E-1
4.521391220E-1,2.987885475E-1,-2.941342354E0,2.346696854E0
4.719105800E-1,4.243209958E-1,-3.017632484E0,1.083220005E0
4.916804760E-1,-1.314774752E-1,-3.698096991E0,-9.495162964E-2
5.114519870E-1,-6.530532241E-1,-4.161465168E0,1.202727318E0
5.312218820E-1,-1.358934164E0,-2.488196850E0,7.276711464E-1
5.509933930E-1,-4.949305654E-1,-6.156206131E-1,-5.777969360E-1
5.707632370E-1,7.037272453E-1,-7.365484238E-1,-1.007090569E0
5.905347470E-1,2.741828918E0,-2.244719505E0,-3.855180740E-1
6.103046430E-1,2.884458303E0,-4.043583393E0,1.973710537E0
6.300761530E-1,4.150782585E0,-4.106935024E0,-9.145116806E-2
6.498460490E-1,2.089285135E0,-4.371423244E0,5.281548500E-1
6.696175070E-1,-4.393720627E-1,-4.244599342E0,1.150838852E0
6.893874030E-1,-7.546854019E-2,-3.341602564E0,8.512878418E-1
7.091589140E-1,2.133086681E0,-3.388763905E0,-3.375343800E0
7.289288090E-1,2.198221445E0,-5.610392094E0,-3.319268227E0
7.487002680E-1,1.231330872E0,-4.405270100E0,-1.677538395E0
7.684701640E-1,-1.491022110E0,-4.044284821E0,-2.007175446E0
7.882416740E-1,-2.359044552E0,-3.591382980E0,-2.988106728E0
8.080115700E-1,-1.234166145E0,-3.876763821E0,-2.375445366E0
8.277830800E-1,1.709279537E0,-4.033784389E0,-4.643663883E0
8.475529240E-1,5.258186340E0,-4.644835472E0,-1.192727089E0
8.673244340E-1,7.153651714E0,-6.246442795E0,3.858669758E0
8.870943300E-1,-2.250625372E0,-6.770719051E0,5.110522747E0
9.068658410E-1,-9.956945419E0,-5.829867363E0,-9.073109627E-1
9.266357370E-1,-1.167928886E1,-5.436346054E0,-3.365951538E0
9.464071950E-1,-1.646930695E1,-2.470520973E0,1.411449432E0
9.661770910E-1,-1.833239174E1,3.496479988E-2,5.971664906E0
9.859486010E-1,-1.486724758E1,6.418969631E-1,5.250584602E0
1.005718497E0,-1.682641602E1,2.396106720E-3,2.707979202E0
1.025490007E0,-2.237817001E1,2.802899599E0,-2.494565487E0
1.045259903E0,-2.075634384E1,5.284612179E0,-4.465460300E0
1.065031362E0,-1.289741516E1,4.301745415E0,-2.583289862E0
1.084801257E0,-6.781385422E0,5.876877308E0,6.903283596E-1
1.104572768E0,-2.753107071E0,7.375779152E0,3.510135412E0
1.124342664E0,-4.434566498E0,6.858420849E0,2.374818087E0
1.144114174E0,-5.184014320E0,1.451895714E0,1.897442436E1
1.163884018E0,1.281625748E0,-5.271840096E-1,2.518058777E0
1.183655528E0,1.561636925E-1,-3.891642094E0,2.143768549E0
1.203425424E0,-5.390196800E0,-1.891454697E0,-9.021461010E-1
1.223196934E0,-7.317180157E0,-8.081464767E-1,-5.153642654E0
1.242966830E0,-4.066803455E0,-2.546298027E0,-6.281162262E0
1.262738289E0,-2.559958458E0,-1.704578400E0,-4.618499756E0
1.282508184E0,-2.904162407E0,2.638049126E-1,-1.340889931E0
1.302279695E0,-8.377189636E-1,1.006675720E0,2.742956161E0
1.322049591E0,-2.513951302E0,5.939769745E-2,9.296081066E-1
1.341821049E0,-2.199029446E0,-1.223708630E0,-5.513163567E0
1.361590945E0,-2.761173248E-2,-9.336833954E-1,-9.295533180E0
1.381362455E0,5.619177818E-1,2.367128134E0,-4.346873283E0
1.401132351E0,3.731106281E0,2.617822409E0,3.165579557E0
1.420903809E0,1.508017635E1,1.784872532E0,-1.776107430E0
1.440673705E0,9.443023682E0,-3.160068989E0,-2.517237186E0
1.460445216E0,-1.115935326E1,-2.953640461E0,5.291676044E0
1.480215112E0,2.034597874E0,-5.716914654E0,6.687570572E0
1.499986622E0,9.380970001E-1,-6.058551311E0,2.259499311E0
1.519756466E0,-1.702348232E0,-2.361809731E0,-2.488967896E0
1.539527976E0,-5.259156227E0,-8.898210526E-2,2.413558960E0
1.559297872E0,6.454726219E0,-2.890642643E0,5.182294369E0
1.579069382E0,-3.248157501E0,8.142232895E-2,3.484199047E0
1.598839226E0,-5.128688335E0,-4.644351006E-1,-2.333592892E0
1.618610737E0,4.024642944E0,-1.778434277E0,-5.756969452E0
1.638380632E0,6.079636097E0,-2.795076370E-2,-2.514646053E-1
1.658152143E0,4.392337799E-1,2.633380890E-1,-7.196845055E0
1.677921987E0,4.443243980E0,6.516532898E-1,-8.777585030E-1
1.697693497E0,1.070396709E1,-8.873853683E-1,4.152335167E0
1.717463393E0,9.418360710E0,-1.062955856E-1,6.306295395E0
1.737234903E0,1.398658752E-2,3.322793484E0,4.316634655E0
1.757004747E0,-1.696937561E0,2.551433086E0,-6.997108459E-1
1.776776257E0,3.714599609E-1,7.207093239E-1,-5.584555864E-1
1.796546153E0,5.932665825E0,1.890275717E0,9.336300850E0
1.816317612E0,4.575059891E0,4.741382599E0,6.532371044E0
1.836087507E0,3.296119690E0,5.486133575E0,-8.089401245E0
1.855859018E0,1.234134674E1,2.590394020E0,5.165623188E0
1.875628862E0,1.268399620E1,5.450801849E-1,5.814411163E0
1.895400372E0,-2.583172798E0,1.035325527E0,-5.661070347E-1
1.915170268E0,-1.215652657E1,1.480791569E0,2.397080183E0
1.934941778E0,-4.910221100E-1,-1.901413441E0,2.111056328E0
1.954711622E0,7.377772331E0,-1.878145695E0,1.131406069E0
1.974483132E0,-3.958171844E0,-5.188374519E0,5.099846840E0
1.994253028E0,-3.825147152E0,-5.434904575E0,-5.104489326E0
2.014024487E0,2.400135994E-1,-5.175598145E0,-8.640007019E0
2.033794382E0,-5.210638046E-1,-5.607131004E0,-1.126731873E1
2.053565841E0,-1.357558727E0,-4.275698185E0,-8.285099983E0
2.073335737E0,5.057058334E-1,-5.751709938E0,-1.632323265E-1
2.093107247E0,-8.842368126E-1,-3.746915340E0,2.413734913E0
2.112877091E0,-3.083401203E0,-4.837840557E0,-2.495788813E0
2.132648601E0,-4.836761475E0,-5.858847618E0,-2.429072857E-1
2.152418497E0,-5.184738636E0,-4.535158157E0,-3.251398802E0
2.172189955E0,-3.074644089E0,-2.332217216E0,-1.267372847E0
2.191959851E0,2.086735487E0,5.946039200E0,4.275546074E0
2.211731309E0,5.250798225E0,7.975414276E0,-3.065209866E0
2.231501205E0,2.687374830E0,4.578783035E0,-1.556123018E0
2.251272664E0,-2.374946594E0,4.712782860E0,2.821511030E0
2.271042559E0,-1.066439390E0,6.851490974E0,-1.940422058E0
2.290814070E0,1.969150662E0,6.245166302E0,-4.110325813E0
2.310583914E0,9.289360046E-2,1.993521690E0,9.042686224E-1
2.330355424E0,-2.026600122E0,5.177049637E-1,-3.481523395E-1
2.350125268E0,-2.266805172E-1,9.758272171E-1,1.616002679E0
2.369896778E0,2.146508694E0,6.678948402E0,-5.337983370E-2
2.389666674E0,9.290533066E-1,1.257820702E1,-2.647099972E0
2.409438132E0,2.719035149E-1,1.111498928E1,-4.421318531E0
2.429208028E0,2.496068954E0,-1.150956154E0,-1.658210754E0
2.448979487E0,5.914752960E0,-6.728081703E0,5.761322498E0
2.468749382E0,4.707832336E-1,-4.662213326E0,1.449542761E0
2.488520841E0,4.324061394E0,-3.064835548E0,1.618349552E-1
2.508290737E0,-8.864083886E-1,-4.797599792E0,5.494920611E-1
2.528062195E0,-5.906354427E0,-6.256978035E0,-3.553292751E-1
2.547832091E0,-4.831893921E0,-1.058260536E1,2.943459988E0
2.567603549E0,-4.623980522E0,-1.743982697E1,6.633367062E0
2.587373445E0,-8.409638405E0,-1.455638790E1,3.769593239E0
2.607144903E0,-3.766263723E0,-6.914107323E0,3.618856192E0
2.626914747E0,-2.182562590E0,-5.369611740E0,-1.248654604E0
2.646686257E0,-3.976827145E0,-1.665792465E-1,-6.017803669E0
2.666456101E0,6.584631205E-1,-1.621242523E0,-9.855305672E0
2.686227612E0,3.797358274E0,-8.657178879E0,-1.520623803E0
2.705997455E0,1.628889918E0,-1.008539677E1,1.115206480E0
2.725768966E0,-2.615896165E-1,-6.796714783E0,-1.645758152E0
2.745538809E0,9.018158317E-1,-2.141662598E0,-2.903715372E0
2.765310320E0,8.450946808E-1,9.577970505E-1,-3.994095802E0
2.785080164E0,-6.356131434E-1,2.328824043E0,-5.081331253E0
2.804851622E0,-1.023452401E0,2.139072418E0,-5.741837502E0
2.824621518E0,-2.396731377E-1,2.744216919E0,-6.667677402E0
2.844392976E0,7.455165386E-1,4.264968395E0,-7.311554432E0
2.864162872E0,1.751129270E0,6.746024132E0,-7.931555748E0
2.883934330E0,1.872813702E0,8.612891197E0,-7.972317696E0
2.903704174E0,5.381625891E-1,8.533611298E0,-7.104785919E0
2.923475684E0,-7.529809475E-1,6.704833984E0,-5.869757175E0
2.943245528E0,-1.606863856E0,4.863188744E0,-3.439856052E0
2.963017039E0,-1.171164870E0,3.938783646E0,-7.038488388E-1
2.982786882E0,5.876457691E-2,3.344594955E0,2.689049721E0
3.002558341E0,5.085992813E-1,2.080603600E0,6.836653233E0
3.022328237E0,6.131541729E-1,-7.389335632E-1,8.534610748E0
3.042099695E0,1.547954679E-1,-3.814905167E0,6.172212124E0
3.061869591E0,-1.131156445E0,-4.031352997E0,3.458878040E0
3.081641049E0,1.183001399E-1,7.507061958E-1,3.150879383E0
3.101410893E0,4.280657768E0,3.020899296E0,-2.701018572E0
3.121182403E0,1.001111126E1,-1.134263325E1,-4.804860115E0
3.140952247E0,2.885012150E0,-2.712039185E1,-3.246227741E0
3.160723705E0,-3.187233210E-1,-2.137784958E0,-2.110414314E1
3.180493601E0,6.892341137E0,1.058510303E1,3.550067425E0
3.200265059E0,-5.815941334E0,5.687198639E0,-1.458710957E1
3.220034955E0,-5.901003361E0,-4.054352760E0,-9.370662689E0
3.239806414E0,-2.368374586E0,-1.187238789E1,1.344259262E0
3.259576309E0,-5.598770142E0,-9.376964569E0,-1.941936255E0
3.279347768E0,-2.982421398E0,-1.446620941E0,-1.505257845E0
3.299117612E0,7.307471037E-1,4.403324127E0,-1.934687853E0
3.318889122E0,2.677041054E0,5.016744137E0,-4.971457720E-1
3.338658966E0,-4.927743077E-1,3.933356285E0,5.192185640E-1
3.358430476E0,-2.248474836E0,1.829812050E0,-4.771751165E-2
3.378200320E0,-2.034450054E0,6.947765350E-1,1.527664065E-2
3.397971830E0,2.260470390E-2,4.806604385E-1,8.119109869E-1
3.417741674E0,1.187931299E0,3.840560913E-1,1.923848152E0
3.437513132E0,1.051762462E0,6.677055359E-1,3.073129416E0
3.457283028E0,5.565748811E-1,1.316739082E0,3.400390148E0
3.477054487E0,-5.114659667E-1,1.633188248E0,2.342973232E0
3.496824382E0,-1.631345034E0,2.065772057E0,1.071669698E0
3.516595841E0,-6.689716578E-1,7.520713806E-1,2.404579163E0
3.536365737E0,3.776468039E-1,-1.046886444E0,5.055048943E0
3.556137195E0,6.270008683E-1,-1.683690071E0,5.942613602E0
3.575907091E0,-4.826884568E-1,-1.706045151E0,5.322378635E0
3.595678549E0,-2.131241083E0,-2.097943306E0,3.954771757E0
3.615448445E0,-1.440396786E0,-2.181585312E0,5.196215630E0
3.635219955E0,5.343748927E-1,-4.301719666E-1,5.833511353E0
3.654989799E0,-1.419538110E-1,-1.356496811E-1,5.063292503E0
3.674761309E0,-4.186542511E0,-2.947619438E0,1.852242231E0
3.694531153E0,-5.460938454E0,-6.557409286E0,2.296138406E-1
3.714302664E0,-1.739092112E0,-6.498001099E0,-3.545009136E0
3.734072559E0,5.126410961E0,-6.575029373E0,-6.370739937E0
3.753844018E0,8.770966530E0,-8.828217506E0,-3.759312630E0
3.773613914E0,6.049052238E0,-1.465492630E1,-3.433448553E0
3.793385372E0,2.648251772E0,-1.549178505E1,-2.410043240E0
3.813155268E0,-3.209708691E0,-8.207492828E0,-2.305619240E0
3.832926778E0,-2.510584354E0,-5.380363464E0,-4.268461704E0
3.852696674E0,-5.216118097E-1,-4.463505745E0,-5.564379215E0
3.872468132E0,1.103494644E0,-2.801511765E0,-5.717747211E0
3.892238028E0,2.375693083E0,7.455139160E-1,-6.966392517E0
3.912009539E0,1.992484093E0,5.756176949E0,-8.946562767E0
3.931779382E0,-2.112283707E-1,9.831663132E0,-8.999308586E0
3.951550893E0,-2.139645576E0,1.090207195E1,-8.834531784E0
3.971320789E0,-2.345719814E0,9.246790886E0,-7.532318592E0
3.991092299E0,-2.369525671E0,7.539559841E0,-5.167961597E0
4.010862143E0,-2.789701700E0,7.087975979E0,-2.221865177E0
4.030633653E0,-1.198033333E0,6.630322933E0,2.572664261E0
4.050403549E0,5.457844734E-1,5.018810272E0,7.306144714E0
4.070175059E0,3.122313976E0,2.962905884E0,5.399416447E0
4.089944955E0,4.221192360E0,2.485806465E0,9.771423340E-1
4.109716414E0,9.192780495E0,2.010240078E0,2.745313644E-1
4.129486309E0,1.253470612E1,2.280672073E0,-5.261836052E0
4.149257820E0,1.609822845E1,-3.519455433E0,-7.577431679E0
4.169027716E0,-3.235902309E0,-1.734966850E1,1.390251350E1
4.188799226E0,-3.420127869E1,-1.078485107E1,-1.678059006E1
4.208569122E0,1.905314922E-1,-7.936568737E0,-1.181984806E1
4.228340632E0,1.421947241E0,-5.806891441E0,-4.151228428E0
4.248110528E0,-1.858133316E0,-8.293016434E0,-6.916762352E0
4.267882039E0,2.269000769E0,-1.115990448E1,-3.861735344E0
4.287651934E0,5.736691952E-1,-8.051354408E0,-2.343503952E0
4.307423445E0,-2.494498968E0,-2.633419037E0,-6.579623222E-1
4.327193341E0,-4.284090042E0,1.685637474E0,1.573882818E0
4.346964851E0,-5.673154831E0,4.184276581E0,2.473704100E0
4.366734747E0,-3.356663704E0,3.944201946E0,3.098904610E0
4.386506257E0,-2.924934387E0,1.842656136E0,3.010847807E0
4.406276153E0,-4.753933907E0,1.026442528E0,2.538675785E0
4.426047664E0,-3.526473045E0,3.381099224E0,4.683546543E0
4.445817559E0,2.508163452E-3,4.489636421E0,1.210260987E0
4.465589070E0,2.317221642E0,2.980683327E0,1.464069366E0
4.485358966E0,-1.097029328E0,1.955749512E0,1.714851856E0
4.505130476E0,-4.757933140E0,2.754057884E0,2.437554836E0
4.524900424E0,-4.461222649E0,1.870949745E0,3.307503939E0
4.544671934E0,-8.504078388E-1,-1.957435608E0,5.187924385E0
4.564441830E0,1.908945918E0,-4.125162125E0,4.517582893E0
4.584213341E0,1.301658869E0,-4.336386681E0,7.855853081E0
4.603983237E0,-2.589186430E0,-3.609903336E0,8.457491875E0
4.623754799E0,-5.241265774E0,-2.445559502E0,6.180547237E0
4.643524695E0,-9.314085007E0,-3.585564613E0,3.179674625E0
4.663296205E0,-1.136882877E1,-7.852045059E0,-1.893517852E0
4.683066101E0,-6.531899452E0,-6.853094101E0,-5.685631275E0
4.702837664E0,5.404758453E0,-4.357239723E0,-4.214711666E0
4.722607559E0,7.504361153E0,-7.463686943E0,2.636301517E-2
4.742379070E0,8.811438084E-1,-1.208562756E1,-1.662645936E0
4.762149018E0,-7.320855141E0,-1.270392895E1,-2.866309643E0
4.781920528E0,-1.012910366E1,-9.793779373E0,-3.141832352E0
4.801690424E0,-5.789752960E0,-7.505057335E0,-5.001648903E0
4.821461987E0,-1.297397137E0,-5.805753708E0,-6.474968910E0
4.841231882E0,2.343173504E0,-1.176177025E0,-8.050666809E0
4.861003445E0,5.660490990E0,4.552088261E0,-1.089204216E1
4.880773341E0,8.216652870E0,1.278093052E1,-9.436051369E0
4.900544851E0,5.554899216E0,1.264492512E1,-4.721538067E0
4.920314799E0,2.679514885E-1,5.656418800E0,-4.703071117E0
4.940086309E0,-7.172715664E-1,2.272864342E0,-6.888815880E0
4.959856257E0,-4.162149429E-1,3.286926746E0,-7.961300850E0
4.979627768E0,7.474346161E-1,5.943269730E0,-8.304435730E0
4.999397716E0,2.106948137E0,7.193684578E0,-7.052894115E0
5.019169226E0,8.964660168E-1,6.275399208E0,-3.431479454E0
5.038939174E0,-1.968250513E0,4.742141247E0,7.397184372E-1
5.058710684E0,-2.160373688E0,3.514006615E0,4.912914753E0
5.078480632E0,4.804265499E-1,1.285680771E0,9.564358711E0
5.098252195E0,8.467197418E-3,-2.090521812E0,1.356657982E1
5.118022091E0,-6.287766933E0,-4.081735611E-1,6.206202507E0
5.137793653E0,-7.143946648E0,1.987967968E0,-4.278099537E0
5.157563653E0,1.796699333E1,-3.145988464E1,9.996040344E0
5.177335112E0,1.430739880E0,-2.611406708E1,-1.982484055E1
5.197105059E0,7.321020126E0,1.223614883E1,-1.695325661E1
5.216876622E0,3.788091898E0,6.283993721E0,-2.171864748E0
5.236646518E0,-5.446908951E0,-5.007142067E0,-1.929360008E1
5.256418080E0,-2.568956614E0,-1.271519947E1,-2.119102716E0
5.276188028E0,-4.088422775E0,-1.294680309E1,1.841193199E0
5.295959591E0,-4.604767323E0,-4.295543671E0,-1.284968972E0
5.315729487E0,-3.092654705E0,2.697566509E0,8.501100540E-2
5.335501049E0,-1.579863727E-1,6.884718418E0,1.516228676E0
5.355270997E0,1.427912712E0,6.599261761E0,-2.660277486E-1
5.375042559E0,-9.111133218E-1,1.405740738E0,-1.218482375E0
5.394812507E0,-7.647982836E-1,-3.568346024E0,9.252050519E-1
5.414584070E0,2.466207981E0,-1.523736000E0,3.028584957E0
5.434354018E0,3.950964212E0,4.382999420E0,2.923951387E0
5.454125580E0,2.050415993E0,6.599312782E0,2.823599339E0
5.473895528E0,-4.681294918E0,2.189090729E0,3.894727230E0
5.493667091E0,-6.283588886E0,-5.123109818E-1,7.776304722E0
5.513437039E0,-3.135882616E0,5.807199478E-1,9.137340546E0
5.533208601E0,-3.543817520E0,1.252402306E0,4.142079353E0
5.552978549E0,-1.712206841E0,-6.797065735E-1,6.417289734E0
5.572750112E0,4.608188152E0,-1.183287621E0,6.008272171E0
5.592520164E0,6.158474445E0,-2.243690491E-1,6.316626072E0
5.612291674E0,2.581177711E0,4.301815033E-1,6.339944839E0
5.632061622E0,4.866117239E-1,3.080800533E0,5.681000233E0
5.651833184E0,-1.311946630E0,3.780735016E0,3.854289532E0
5.671603237E0,-4.107646942E0,-5.254643440E0,-3.495545387E0
5.691374747E0,-1.049930000E1,-1.721514893E1,-1.190080452E1
5.711144695E0,-6.956913948E0,-1.582197189E1,-1.030808163E1
5.730916257E0,6.206456661E0,-1.393862724E1,-1.105729580E0
5.750686309E0,2.789429426E0,-1.599892998E1,2.019248009E-1
5.770457820E0,-9.474304199E0,-1.619049072E1,2.254747391E0
5.790227872E0,-1.640241814E1,-1.348686123E1,1.933152676E0
5.809999382E0,-1.478546143E1,-1.253676605E1,-6.530079842E-1
5.829769434E0,-1.134865284E1,-1.027778435E1,-8.954520226E0
5.849540945E0,-7.492462158E0,-2.947053909E0,-1.452041817E1
5.869310997E0,-1.607512474E0,9.837472916E0,-4.117979527E0
5.889082507E0,3.905494452E0,1.317024422E1,-4.098765850E0
5.908852559E0,4.908466816E0,5.999484539E0,-1.068181229E1
5.928624070E0,1.987514973E0,3.217032433E0,-9.993110657E0
5.948394122E0,-8.283104897E-1,2.596205711E0,-1.016079903E1
5.968165632E0,3.911437988E-1,1.385576248E0,-1.162260151E1
5.987935632E0,2.674130201E0,3.396379471E0,-1.180992031E1
6.007707247E0,9.583199024E-1,7.621274471E0,-1.086417007E1
6.027477195E0,-2.007997513E0,1.116673470E1,-6.433238983E0
6.047248809E0,-4.402719498E0,1.218711281E1,-2.778239250E-1
6.067018862E0,-6.368080616E0,7.717376232E0,6.951362610E0
6.086790372E0,-3.420384884E0,8.598890305E-1,1.022762299E1
6.106560424E0,-1.166299820E0,-4.647846222E-1,6.107717037E0
6.126331987E0,-7.580579281E0,9.115694046E0,-4.950046539E0
6.146102039E0,2.154160500E0,1.714115143E0,-2.488916779E1
6.165873549E0,3.289418411E1,-6.413466644E1,4.957138062E1
6.185643601E0,-2.762512398E1,-5.611103058E0,-4.502816391E1
6.205415164E0,1.690142441E1,2.249768829E1,9.100892067E0
6.225185216E0,-4.595072865E-1,1.156806564E1,-2.494473457E1
6.244956726E0,-5.685604095E0,-7.267427444E0,-9.012235641E0
6.264726726E0,2.278014660E0,-2.677779770E1,6.216505527E0
6.284498341E0,-2.640420675E0,-1.159557533E1,-3.426300287E0
6.304268393E0,2.399412632E0,1.293347359E0,-1.132011652E0
6.324039955E0,1.986869454E0,5.255538940E0,-4.827340126E0
6.343809903E0,-8.784432411E-1,3.600358009E0,4.839092493E-1
6.363581518E0,-4.410111427E0,5.963125229E-1,4.862924814E-1
6.383351570E0,-1.488941908E0,5.243825912E-1,3.710246086E-2
6.403123132E0,2.295151472E0,4.305926800E0,3.394163609E0
6.422893184E0,1.128339767E-2,3.033667564E0,3.171023846E0
6.442664747E0,-3.385317564E0,1.027909279E0,2.303334236E0
6.462434695E0,-4.167639732E0,1.199654579E0,3.478572607E0
6.482206309E0,-4.657284737E0,1.384242058E0,6.463674545E0
6.501976362E0,-3.942765951E0,9.856052399E-1,9.182029724E0
6.521747924E0,-1.669125319E0,3.578319550E-1,4.875740051E0
6.541517976E0,-1.639908791E0,-1.440448761E-1,4.514299870E0
6.561289539E0,-1.611210227E0,-2.097419739E0,6.116523743E0
6.581059591E0,6.844122410E-1,-2.392207146E0,4.704084873E0
6.600831101E0,4.280136108E0,-1.611634254E0,7.199094772E0
6.620601153E0,6.395788193E0,-3.005145073E0,7.551626205E0
6.640372716E0,3.865701914E0,-2.866761208E0,8.439821243E0
6.660142768E0,-9.968004823E-1,-2.813089371E0,5.434697151E0
6.679914330E0,-5.780163765E0,-8.154510498E0,-1.818844557E0
6.699684382E0,-4.178136826E0,-6.339952469E0,-3.662744522E0
6.719455893E0,3.455658197E0,-7.606342316E0,-6.195199490E-2
6.739225945E0,2.294950247E0,-1.232367229E1,-1.634194970E0
6.758997507E0,-3.620450497E-1,-1.788292694E1,-6.772956848E0
6.778767559E0,6.762454510E-1,-1.580880833E1,-7.347892761E0
6.798539070E0,2.805109501E0,-9.456488609E0,-5.643809319E0
6.818309070E0,3.696162224E0,-7.247187614E0,-2.749894619E0
6.838080684E0,2.066911936E0,-5.862982750E0,-3.464647055E0
6.857850737E0,-2.309485376E-1,-1.726243973E0,-4.830841064E0
6.877622299E0,5.366897583E-2,4.647126198E0,-5.974700451E0
6.897392247E0,6.395987868E-1,9.066086769E0,-7.181025505E0
6.917163862E0,1.785446763E0,1.023641109E1,-8.661815643E0
6.936933914E0,7.797619104E-1,9.420063019E0,-1.028461647E1
6.956705476E0,9.004145861E-1,7.819575310E0,-1.012864399E1
6.976475424E0,2.236295938E-1,8.116258621E0,-9.161815643E0
6.996247039E0,-1.235523701E0,8.442047119E0,-8.902563095E0
7.016017091E0,-2.017778397E0,9.740499496E0,-7.818584919E0
7.035788653E0,-1.818111658E0,7.304846764E0,-1.677473783E0
7.055558601E0,-1.110459447E0,4.694475651E0,5.782614231E0
7.075330216E0,3.810558558E0,1.194819450E0,1.249707603E1
7.095100268E0,6.520351410E0,-2.595836639E0,1.213049889E1
7.114871778E0,3.467699289E0,-6.920867920E0,6.829366207E0
7.134641830E0,-1.713118672E0,-1.947422981E0,-3.444655180E0
7.154413393E0,1.072835732E1,-1.932655334E0,-4.821434021E0
7.174183341E0,2.429489899E1,-1.658600616E1,-1.565403175E1
7.193954955E0,-1.399824858E0,-1.510471153E1,1.214888954E1
7.213725007E0,-2.374512482E1,2.385514259E0,-1.667719269E1
7.233496518E0,-4.689431190E0,1.013597965E0,-6.911545277E0
7.253266570E0,2.033686876E0,-3.445621490E0,-1.113279724E1
7.273038080E0,2.368856192E0,-9.042687416E0,5.083847046E-1
7.292808080E0,-1.054292321E-1,-1.088594913E1,-6.438263416E0
7.312579695E0,1.715782762E0,-7.165377617E0,-3.866584301E0
7.332349643E0,1.213099241E0,-2.824667931E0,-1.636492014E0
7.352121257E0,1.037754893E0,1.524496078E0,-9.973100424E-1
7.371891205E0,7.380512953E-1,4.181676865E0,-7.324498892E-1
7.391662820E0,-1.157028794E0,4.393201828E0,-5.972453356E-1
7.411432872E0,-2.803930759E0,2.549057007E0,-1.287005186E0
7.431204382E0,-1.432119131E0,1.549367905E-1,-4.972784221E-1
7.450974434E0,-9.804226160E-1,4.772968292E-1,1.894298792E0
7.470745945E0,-2.021754742E0,2.063193798E0,4.848099232E0
7.490515997E0,-1.986017227E0,2.235859394E0,4.990690708E0
7.510287507E0,-3.509465694E0,1.082514763E0,1.094823122E0
7.530057559E0,-1.938347816E-1,6.928300858E-1,6.379586697E0
7.549829070E0,1.781090498E0,1.859300137E0,6.674700737E0
7.569599122E0,-1.268305540E0,1.226255417E0,5.869870186E0
7.589370632E0,-2.435002089E0,-1.281080246E-1,7.199818611E0
7.609140684E0,1.100932837E0,-2.208309174E0,5.787041664E0
7.628912195E0,3.859865665E0,-2.402779579E0,5.980256081E0
7.648682247E0,1.123873115E0,-9.696598053E-1,4.612674713E0
7.668453757E0,-2.928296089E0,-2.072944641E-1,4.875080585E-1
7.688223809E0,-6.711860657E0,-7.139546394E0,-6.835107803E-1
7.707995320E0,-6.953711033E0,-1.197629261E1,-1.769305944E0
7.727765372E0,-2.725678205E0,-8.057211876E0,-8.047136068E-1
7.747536882E0,-1.159523368E0,-5.798574448E0,-8.658375144E-1
7.767306934E0,-2.947945118E0,-8.635024071E0,-5.035306454E0
7.787078445E0,-2.143748760E0,-1.041137695E1,-4.504346371E0
7.806848497E0,1.642136574E-1,-1.182072067E1,-3.142809391E0
7.826620007E0,-1.887211323E0,-1.051429462E1,-2.536815882E0
7.846389955E0,-3.808493853E0,-6.361471176E0,-3.552860260E0
7.866161570E0,-5.251007080E0,-1.411971092E0,-3.679738045E0
7.885931518E0,-5.096523762E0,2.546343803E0,-4.173722267E0
7.905703132E0,-3.899837494E0,5.948648930E0,-3.341370106E0
7.925473132E0,-1.760169983E0,7.180817127E0,-3.937735081E0
7.945244643E0,-2.938555479E-1,6.033602238E0,-4.726910591E0
7.965014695E0,7.807223797E-1,5.446468830E0,-6.807379723E0
7.984786205E0,1.264308095E0,5.087663651E0,-8.803500175E0
8.004556153E0,1.329930186E0,5.239301205E0,-9.260396957E0
8.024327768E0,1.471187592E0,5.793321609E0,-8.439369202E0
8.044097716E0,1.877974987E0,6.044434071E0,-6.906391144E0
8.063869278E0,2.264642477E0,5.995950699E0,-5.186940670E0
8.083639330E0,2.190681934E0,6.011991024E0,-3.419692516E0
8.103410841E0,1.858654380E0,5.946445942E0,-1.442800283E0
8.123180789E0,2.202026367E0,5.248087883E0,1.771992207E0
8.142952403E0,1.956515431E0,3.401529312E0,7.082294941E0
8.162722351E0,-4.505578279E-1,-8.582687378E-1,1.265521240E1
8.182493914E0,-5.982340813E0,-5.699634552E0,1.236737251E1
8.202263966E0,-8.829940796E0,-5.597033501E0,7.883086205E0
8.222035476E0,-1.482350469E0,-1.180828667E1,7.354574203E0
8.241805424E0,2.764679909E0,-2.702920914E1,-9.682939529E0
8.261576987E0,5.835929394E0,3.331260204E0,-2.081835556E1
8.281347039E0,1.627267265E1,1.355934620E1,4.371688366E0
8.301118549E0,-1.385378170E1,4.712952614E0,-1.050321960E1
8.320888497E0,-9.251706123E0,-9.720427513E0,-2.109746933E1
8.340660059E0,9.448976517E-1,-1.597865868E1,5.051603317E0
8.360430007E0,-3.734464169E0,-1.066086388E1,-8.688807487E-1
8.380201622E0,-7.477447391E-1,-2.462088585E0,-2.338024616E0
8.399971570E0,1.389371276E0,2.471711159E0,-1.557702661E0
8.419743132E0,1.242850542E0,4.247336388E0,-8.620631695E-2
8.439513080E0,-1.098403215E0,3.325419426E0,-5.713312626E-1
8.459284695E0,-2.840113401E0,-2.840700150E-1,-2.977226973E-1
8.479054695E0,-3.271196842E0,-2.478967667E0,1.115241289E0
8.498826205E0,-1.428525329E0,-5.561103821E-1,1.969474912E0
8.518596153E0,1.501937509E-1,1.995165348E0,1.825573802E0
8.538367716E0,1.253000736E0,3.826129913E0,2.582989216E0
8.558137664E0,1.375300169E0,4.301092625E0,3.032849789E0
8.577909226E0,3.390966058E-1,3.187072754E0,2.350527763E0
8.597679174E0,-1.030456543E0,1.810116768E0,2.116616964E0
8.617450737E0,-2.713034153E0,1.731083870E0,2.142463207E0
8.637220789E0,-4.767845631E0,2.550061226E0,3.165285587E0
8.656992247E0,-5.411893368E0,1.317176819E0,1.531641245E0
8.676762299E0,-2.483431816E0,-1.272707939E0,4.864880562E0
8.696533809E0,-3.327029943E-1,-1.229631424E0,8.008247375E0
8.716303757E0,3.468811512E-2,-2.226571083E0,4.634827614E0
8.736075320E0,1.485561371E0,-2.983487129E0,3.673894644E0
8.755845268E0,1.253282547E0,-2.749760628E0,5.527581215E0
8.775616830E0,-1.657173157E0,-2.645582199E0,4.423336029E0
8.795386778E0,-4.916925430E0,-4.942735672E0,1.736326933E0
8.815158341E0,-6.106694221E0,-5.965709686E0,-2.912330627E-1
8.834928289E0,-2.213969707E0,-4.453850746E0,-1.006838679E0
8.854699851E0,3.280362606E0,-3.853302956E0,-1.333166003E0
8.874469799E0,2.978177309E0,-4.982182503E0,-2.162417412E0
8.894241362E0,-1.227022529E0,-9.641052246E0,-3.459560394E0
8.914011309E0,-4.241781235E0,-1.330994701E1,-3.874257565E0
8.933782872E0,-3.170692444E0,-1.212096500E1,-4.823382378E0
8.953552872E0,1.986901641E0,-7.983201981E0,-4.193675041E0
8.973324330E0,3.389672518E0,-3.819169044E0,-2.889158964E0
8.993094278E0,1.889581203E0,-9.972572327E-1,-2.825253010E0
9.012865841E0,-2.302688360E-2,6.339740753E-1,-3.615082264E0
9.032635789E0,1.959413588E-1,2.865976810E0,-4.459578514E0
9.052407351E0,1.191364288E0,5.402460098E0,-6.686331749E0
9.072177299E0,1.238264680E0,7.011036873E0,-7.578720570E0
9.091948862E0,1.896658659E0,6.878699303E0,-7.561436653E0
9.111718809E0,2.508746147E0,6.228103638E0,-7.541278839E0
9.131490320E0,2.577245474E0,5.748998642E0,-6.960574150E0
9.151260268E0,1.885401130E0,5.054594517E0,-5.101420403E0
9.171031830E0,8.921515942E-1,3.838133812E0,-2.517309189E0
9.190801778E0,4.637243748E-1,3.018971443E0,-4.208626747E-1
9.210573341E0,2.696204185E-2,3.113276482E0,1.033538342E0
9.230343237E0,5.462666750E-1,3.720963478E0,1.589814663E0
9.250114799E0,4.112937450E-1,4.235927105E0,2.442441463E0
9.269884747E0,-6.809068918E-1,3.440317631E0,3.519835472E0
9.289656309E0,-1.712128401E0,1.962445259E0,4.283975601E0
9.309426205E0,-2.543940067E0,1.643709183E0,4.875331879E0
9.329197768E0,-6.483339071E-1,1.954309940E0,8.060070038E0
9.348967716E0,7.459188461E0,-3.087098122E0,6.505422592E0
9.368739278E0,2.342924881E1,-1.977332878E1,-1.126715469E1
9.388509174E0,1.261053324E0,-2.009147263E1,-3.242444992E-2
9.408280737E0,-1.396842360E0,8.868680000E0,-2.256781387E1
9.428050684E0,-4.970076561E0,1.110230827E1,1.052136040E1
9.447822195E0,-1.123906136E1,-1.392221451E0,-1.950660896E1
9.467592143E0,-2.042358160E0,-9.067563057E0,-5.617378235E0
9.487363705E0,-7.212150097E-2,-1.510068703E1,2.024936676E-2
9.507133601E0,-3.276874304E0,-1.023185921E1,-2.262345791E0
9.526905164E0,1.077383280E0,-2.701761246E0,-1.418621063E0
9.546675112E0,1.438491464E0,2.597582817E0,6.546058655E-1
9.566446622E0,-1.730296910E-1,4.444679260E0,6.582906246E-1
9.586216570E0,-1.825564861E0,3.468392372E0,1.588182449E-1
9.605988080E0,-3.792427540E0,1.717027664E0,2.740024924E-1
9.625758028E0,-4.352742195E0,-1.290826797E-1,4.542180896E-1
9.645529591E0,-2.108091354E0,-1.161251068E-1,1.013761044E0
9.665299487E0,7.411615849E-1,1.098901749E0,2.204586267E0
9.685071049E0,3.354181051E0,2.541952133E0,4.090908051E0
9.704840997E0,3.588651180E0,3.515886784E0,4.655004501E0
9.724612507E0,4.846872687E-1,2.927212715E0,3.826086044E0
9.744382455E0,-2.648638725E0,1.339512825E0,1.959985495E0
9.764153966E0,-2.874771595E0,2.203501701E0,1.088541269E0
9.783923914E0,-1.292415500E0,1.505143166E0,3.840531588E0
9.803695476E0,-9.568101168E-2,-1.308928490E0,7.287204266E0
9.823465372E0,1.829799533E0,-2.560368538E0,4.989530563E0
9.843236934E0,3.106021643E0,-1.954872131E0,3.913557291E0
9.863006882E0,2.424602270E0,-7.927198410E-1,3.340124130E0
9.882778393E0,2.295464277E0,-8.764028549E-1,3.709331751E0
9.902548341E0,2.187084198E0,-1.156869888E0,4.762713432E0
9.922319851E0,-3.484746218E-1,-3.106202126E0,4.394921303E0
9.942089799E0,-6.722780228E0,-7.439579964E0,5.630939007E-1
9.961861362E0,-8.952816010E0,-6.731790543E0,-1.911552429E0
9.981631257E0,-6.156826615E-1,-5.875329971E0,-1.069866300E0
1.000140282E1,4.398624420E0,-5.552720070E0,2.264569998E0
1.002117272E1,-1.224133968E0,-9.668663979E0,4.175850391E0
1.004094428E1,-5.814204216E0,-1.544506073E1,-2.266908407E0
1.006071423E1,-6.361318588E0,-1.340016460E1,-6.597071648E0
1.008048574E1,-3.545155525E0,-1.013764095E1,-2.796437263E0
1.010025568E1,-3.439613342E0,-6.030705452E0,-3.421926498E-1
1.012002725E1,-2.324107647E0,-3.107481956E0,-1.735284209E0
1.013979714E1,8.672541380E-2,-2.316026688E-1,-5.124888897E0
1.015956870E1,1.626808047E0,3.670550823E0,-7.691015720E0
1.017933860E1,1.805655360E0,1.010799599E1,-7.684710026E0
1.019911016E1,1.326225042E0,9.331027031E0,-5.216144562E0
1.021888011E1,-2.381361008E0,6.840836525E0,-6.662359238E0
1.023865162E1,-2.637072802E0,4.111773968E0,-9.089981079E0
1.025842157E1,-1.359099030E0,3.360882759E0,-6.825599194E0
1.027819308E1,4.782170057E-1,4.196515560E0,-6.017586708E0
1.029796303E1,1.564636111E0,5.183598995E0,-6.632304668E0
1.031773459E1,7.582498789E-1,6.546411991E0,-6.436774254E0
1.033750449E1,-4.247498512E-1,7.374650002E0,-4.716173172E0
1.035727605E1,-1.062515974E0,8.056290627E0,-1.417885065E0
1.037704605E1,-1.984235406E0,7.649809361E0,3.420357227E0
1.039681751E1,-3.221378088E0,4.311157227E0,1.099470806E1
1.041658746E1,-2.843831301E0,-2.769526482E0,1.277938271E1
1.043635897E1,2.233615398E0,-8.240560532E0,1.189166164E1
1.045612891E1,9.752829552E0,-6.380030632E0,-1.320179462E0
1.047590042E1,2.199576187E1,-1.840821457E1,-1.216000366E1
1.049567037E1,-1.367571831E0,-1.569100189E1,6.293115616E0
1.051544188E1,-6.655511856E0,2.880672455E0,-1.618480682E1
1.053521183E1,-3.901249409E0,4.442916870E0,-4.554558754E0
1.055498339E1,-6.952698231E0,-2.423786163E0,-1.822449493E1
1.057475329E1,-8.715487123E-1,-9.955610275E0,-4.495525360E-1
1.059452485E1,-7.558195591E-1,-1.184434700E1,-7.957153320E-1
1.061429475E1,1.344990730E-1,-5.796151161E0,-3.514503002E0
1.063406631E1,1.410573363E0,-1.145280838E0,-1.994259477E0
1.065383621E1,3.737469912E-1,1.947499275E0,-4.358801842E-1
1.067360777E1,-1.745708942E0,2.480941296E0,-6.072533131E-2
1.069337766E1,-4.301190853E0,2.374668121E-1,-1.096161604E0
1.071314923E1,-4.175070286E0,-2.224013329E0,-5.039356947E-1
1.073291923E1,-3.993299603E-1,-9.684534073E-1,2.152427197E0
1.075269068E1,1.617069483E0,2.682454109E0,3.361477137E0
1.077246063E1,1.484249592E0,6.129959583E0,3.352142572E0
1.079223214E1,6.516951323E-1,6.947283745E0,2.734550476E0
1.081200209E1,-3.064525127E0,4.665439606E0,2.340292215E0
1.083177360E1,-6.491391182E0,1.656948090E0,1.076045990E0
1.085154355E1,-6.175123215E0,-6.834354401E-1,5.105240345E-1
1.087131506E1,-4.928543568E0,6.687316895E-1,3.295335293E0
1.089108506E1,-4.670207977E0,2.365157604E0,5.039761543E0
1.091085652E1,-3.621659279E0,-1.950801849E0,6.310441017E0
1.093062641E1,-2.119939566E0,-4.622587204E0,8.231643677E0
1.095039798E1,-1.001560450E0,-4.361323357E0,7.129241943E0
1.097016787E1,-2.007695198E0,-4.358118057E0,5.438019753E0
1.098993943E1,-3.106219292E0,-4.553433418E0,3.040866375E0
1.100970933E1,-4.083178520E0,-5.278927803E0,1.442217827E0
1.102948089E1,-2.305444717E0,-5.176172256E0,9.947468638E-1
1.104925079E1,1.054051638E0,-3.984350204E0,4.882968068E-1
1.106902230E1,2.329117775E0,-6.533496857E0,-2.279953063E-1
1.108879225E1,2.040569782E0,-1.094395733E1,-2.618775964E-1
1.110856376E1,-3.635516167E0,-1.272472191E1,-2.331263542E0
1.112833371E1,-9.823005676E0,-1.028080177E1,-2.616297007E0
1.114810522E1,-4.445495605E0,-8.897073746E0,-1.725807190E0
1.116787516E1,-1.741665840E0,-5.262366295E0,-1.015769958E0
1.118764667E1,-1.786406040E-1,-1.597266197E0,-2.461452484E0
1.120741657E1,2.795086384E0,1.629213333E0,-6.210216522E0
1.122718813E1,3.949599028E0,4.754126549E0,-8.421675682E0
1.124695803E1,4.359291553E0,8.631813049E0,-6.362518311E0
1.126672954E1,3.217153788E0,8.575763702E0,-5.923008919E0
1.128649949E1,1.363622189E0,7.202836037E0,-6.979110718E0
1.130627100E1,1.445735216E0,5.462705612E0,-5.416115284E0
1.132604094E1,-1.585668325E-1,3.658182144E0,-5.516508579E0
1.134581246E1,-1.726130366E0,4.038046837E0,-8.014751434E0
1.136558235E1,-1.716239452E-1,7.923305035E0,-8.900402069E0
1.138535391E1,1.413844585E0,8.680676460E0,-4.825554848E0
1.140512381E1,3.973084688E-1,8.120571136E0,1.302886963E0
1.142489532E1,-1.272198319E0,6.599871635E0,5.953330040E0
1.144466527E1,-2.062559128E-3,2.371906281E0,1.200476456E1
1.146443678E1,2.964532375E-2,-4.634418488E0,1.422815704E1
1.148420667E1,-3.014210701E0,-3.148468018E0,6.981735229E-1
1.150397824E1,1.123048592E1,-1.665404892E1,-8.043036461E-1
1.152374813E1,9.031665802E0,-4.516431046E1,-5.481228828E0
1.154351964E1,4.336313009E-1,1.361688805E1,-3.672481537E1
1.156328959E1,2.099360275E1,1.329852676E1,1.587021351E1
1.158306110E1,-5.068284512E0,-2.471194267E0,-2.577011490E1
1.160283105E1,-5.041481972E0,-1.786464310E1,-3.759913206E0
1.162260256E1,-7.012666702E0,-1.957835770E1,1.797406912E0
1.164237246E1,-2.451120615E0,-5.771422386E0,-1.336741447E-2
1.166214397E1,-4.297477603E-1,3.700146675E0,-3.820543766E0
1.168191391E1,7.341639400E-1,7.927196980E0,-4.873355627E-1
1.170168542E1,6.840162277E-1,5.486538887E0,2.354603291E0
1.172145537E1,-3.237105131E0,1.568017006E0,1.223122120E0
1.174122688E1,-2.381155968E0,-2.011111259E0,1.835739613E0
1.176099678E1,2.794842124E-1,-2.461619377E0,3.118317842E0
1.178076829E1,1.350346088E0,1.478324890E0,4.156876564E0
1.180053824E1,1.365972757E0,5.210268974E0,4.554206848E0
1.182030975E1,-1.586023331E0,5.688614845E0,3.637324572E0
1.184007964E1,-4.887421608E0,3.665788651E0,2.185145378E0
1.185985120E1,-5.093063831E0,1.689429760E0,2.285101891E0
1.187962110E1,-1.842953205E0,1.354265213E0,5.058588028E0
1.189939261E1,4.366917014E-1,1.015023232E0,6.885557175E0
1.191916256E1,7.410501242E-1,2.692146301E-1,5.727521896E0
1.193893407E1,2.688416004E0,-1.956832886E0,5.596982002E0
1.195870397E1,1.005563021E0,-2.131868362E0,4.222779751E0
1.197847553E1,-3.803590298E0,-2.159008980E0,4.386804581E0
1.199824542E1,-4.887855530E0,-3.535931587E0,3.835458994E0
1.201801693E1,-3.825611353E0,-6.196640015E0,1.671741843E0
1.203778688E1,-1.042251468E0,-9.189868927E0,3.613874912E-1
1.205755839E1,4.054043293E0,-8.962044716E0,-5.451623201E-1
1.207732834E1,7.464185238E0,-6.459751129E0,-2.915080547E0
1.209709985E1,5.691387177E0,-7.489542961E0,-1.021157742E0
1.211686975E1,5.778685212E-1,-1.129383564E1,-2.366928577E0
1.213664131E1,-1.897998333E0,-1.334625435E1,-2.705758095E0
1.215641121E1,1.770436764E0,-1.031786442E1,-3.760966063E0
1.217618272E1,7.379055500E0,-5.787814140E0,-4.275067329E0
1.219595266E1,6.717693806E0,-2.056025505E0,-6.185825348E0
1.221572417E1,5.453590393E0,-1.088676453E-1,-6.890508652E0
1.223549407E1,3.701596260E0,1.924455166E0,-5.816740513E0
1.225526558E1,2.294161081E0,4.175756454E0,-6.004372597E0
1.227503553E1,1.117659450E0,6.819097996E0,-7.239722252E0
1.229480704E1,-3.967113793E-1,8.668538094E0,-7.481450081E0
1.231457699E1,-2.111547470E0,8.013849258E0,-7.535800934E0
1.233434850E1,-1.995751023E0,7.959237576E0,-7.953740597E0
1.235411839E1,-2.991600037E0,9.965016365E0,-6.574551582E0
1.237388990E1,-3.259468794E0,1.121927452E1,-3.131509781E0
1.239365985E1,-2.090887070E0,9.506142616E0,-1.012742043E0
1.241343136E1,-1.161192656E-1,6.000566483E0,6.132788658E0
1.243320131E1,5.735254884E-1,-2.596879959E0,2.170759201E1
1.245297282E1,7.165563583E0,-1.565820122E1,1.383890438E1
1.247274272E1,7.906462669E0,-1.116706944E1,2.838411331E-1
1.249251423E1,6.102284431E0,3.584627151E0,-1.240971756E1
1.251228417E1,2.238650322E1,3.700246334E0,-1.459011269E1
1.253205568E1,8.825020790E0,-1.072247791E1,2.011550713E1
1.255182558E1,-3.490707016E1,-1.389917660E1,-2.181667328E1
1.257159714E1,-1.400919056E1,-5.626928329E0,-8.687870979E0
1.259136704E1,5.585491657E0,-2.160888672E0,-5.398950577E-1
1.261113855E1,5.267958641E-1,-3.764225006E0,-7.504405022E0
1.263090850E1,-3.026335001E0,-6.583360672E0,-4.214701653E0
1.265068001E1,1.045780420E0,-8.380640030E0,-4.135757446E0
1.267044990E1,1.067452550E0,-5.091396332E0,-1.848078609E0
1.269022141E1,-1.658738375E0,6.951322556E-1,1.532518864E0
1.270999131E1,-3.132162571E0,4.162418365E0,-6.157996058E-1
1.272976287E1,-2.881488323E0,4.049910545E0,-1.657561660E-1
1.274953277E1,-6.501988173E-1,2.586660385E0,1.231469274E0
1.276930428E1,-1.213534474E-1,6.121921539E-2,2.588421345E0
1.278907423E1,-1.034724712E0,7.586154938E-1,2.829227209E0
1.280884574E1,-7.775084972E-1,2.928259850E0,2.091401339E0
1.282861563E1,-4.443872571E-1,3.290296078E0,3.064701557E0
1.284838714E1,-1.400786757E0,2.894948959E0,2.859469175E0
1.286815709E1,-2.924212217E0,2.488566399E0,-2.592803240E-1
1.288792860E1,-3.557018757E0,1.187458992E0,-5.824055672E-1
1.290769850E1,-2.938823462E0,2.022113800E-1,3.647107124E0
1.292747001E1,-1.124598384E-1,2.116537094E-1,4.881876469E0
1.294723996E1,1.225902677E0,-5.639572144E-1,4.397794724E0
1.296701147E1,2.809806466E-1,-2.010566711E0,1.963915586E0
1.298678136E1,-1.441340804E0,-2.575661659E0,4.696646690E0
1.300655287E1,-3.820030212E0,-1.727287292E0,4.328905106E0
1.302632277E1,-4.506769180E0,-1.906702042E0,1.692702055E0
1.304609428E1,-2.717943907E0,-3.784543037E0,3.386339188E0
1.306586423E1,8.612883091E-2,-3.705316544E0,5.302041054E0
1.308563574E1,8.854508400E-1,-1.538911819E0,5.587346077E0
1.310540563E1,-2.394778490E0,-1.174132347E0,3.703099728E0
1.312517714E1,-4.943887234E0,-1.896458626E0,2.633723736E0
1.314494704E1,-4.987354755E0,-3.272893906E0,2.079952717E0
1.316471855E1,-3.193411350E0,-4.642363548E0,-9.027141929E-1
1.318448850E1,3.376354694E0,-4.184219360E0,-2.693762302E0
1.320426001E1,4.410638332E0,-3.540056229E0,-1.518859863E0
1.322402990E1,4.848594666E-1,-5.784936905E0,-1.769486547E0
1.324380141E1,-1.957653522E0,-7.762664795E0,-2.726240873E0
1.326357131E1,-3.617670059E0,-6.419046402E0,-3.414497375E0
1.328334282E1,-2.307838678E0,-4.766560555E0,-2.800648212E0
1.330311272E1,-1.956802607E-1,-3.863489151E0,-2.009881258E0
1.332288423E1,5.429796576E-1,-2.033860207E0,-3.460546732E0
1.334265412E1,1.475970268E0,2.860193253E-1,-5.973032951E0
1.336242568E1,1.622373223E0,2.936396599E0,-7.006368637E0
1.338219558E1,2.018865585E0,5.174003601E0,-7.112905502E0
1.340196709E1,2.777393341E0,6.495217323E0,-6.684273720E0
1.342173699E1,2.750544548E0,5.243559837E0,-6.521916866E0
1.344150850E1,2.210816622E0,4.242649078E0,-6.215794563E0
1.346127839E1,8.107410669E-1,4.122382164E0,-5.869666576E0
1.348104990E1,-3.905999660E-1,4.748045444E0,-5.074811459E0
1.350081980E1,-4.932545424E-1,5.526912212E0,-3.530498505E0
1.352059131E1,-9.797126055E-1,5.884032726E0,-9.047496319E-1
1.354036120E1,-1.198737860E0,5.273825169E0,2.895119905E0
1.356013272E1,-1.947873473E0,3.031878471E0,7.038454056E0
1.357990261E1,-2.126400232E0,-1.799488068E0,1.273550415E1
1.359967412E1,-9.469807148E-1,-8.144386292E0,1.279678631E1
1.361944402E1,2.326006889E0,-9.675743103E0,8.989887238E0
1.363921553E1,4.262164593E0,-1.990033150E0,1.811072826E0
1.365898542E1,6.817194939E0,4.892273426E0,-1.938891888E0
1.367875693E1,9.224052429E0,-4.848626137E0,-3.719511271E0
1.369852683E1,1.678080320E0,-1.069488716E1,-7.186581135E0
1.371829834E1,-7.075246811E0,-1.548589706E0,-4.437199116E0
1.373806824E1,-3.905032635E0,3.382726192E0,-1.064709282E1
1.375783975E1,5.871641636E-2,-3.695917130E-1,-6.448908806E0
1.377760964E1,-3.873940945E0,-4.339430809E0,-6.510458946E0
1.379738110E1,-4.644658089E0,-6.899816513E0,-2.329516649E0
1.381715100E1,-1.840016842E0,-3.556962013E0,-3.280557632E0
1.383692251E1,2.349176407E0,1.045536995E0,-5.949647427E-1
1.385669240E1,2.924347639E0,5.103347778E0,-9.760580063E-1
1.387646391E1,1.081048131E0,4.541099548E0,-1.215265393E0
1.389623381E1,-1.418388009E0,1.404252052E0,6.271718144E-1
1.391600532E1,-3.175565958E0,-4.161252975E-1,1.296095133E0
1.393577522E1,-3.070585012E0,3.847942352E-1,4.919039607E-1
1.395554673E1,-1.314257503E0,1.649427414E0,1.243437290E0
1.397531662E1,5.685983896E-1,1.653289795E0,2.708468199E0
1.399508808E1,6.844034195E-1,1.453198433E0,2.828444242E0
1.401485798E1,-2.666831613E-1,1.947112083E0,2.731673479E0
1.403462949E1,-1.350420952E0,1.504527092E0,2.503229618E0
1.405439938E1,-1.820617676E0,7.656784058E-1,2.446552277E0
1.407417089E1,-4.859566689E-1,2.474966049E-1,1.248445868E0
1.409394079E1,1.111988544E0,-8.061227798E-1,3.112987041E0
1.411371230E1,-2.774253488E-1,-2.011632919E0,5.615375519E0
1.413348214E1,-3.204235554E0,-2.062798500E0,5.312260628E0
1.415325365E1,-4.016652584E0,-2.201514244E0,2.255346775E0
1.417302355E1,-3.049136877E0,-2.844685555E0,2.365641356E0
1.419279506E1,-1.848885417E0,-4.637335777E0,4.658280373E0
1.421256496E1,5.789090991E-1,-3.404599190E0,5.440531731E0
1.423233647E1,9.654760361E-1,-2.441391945E0,4.686749458E0
1.425210636E1,-1.983471751E0,-2.496361732E0,3.222195148E0
1.427187782E1,-6.006591797E0,-1.947910309E0,1.501234889E0
1.429164772E1,-5.947028637E0,-4.372380257E0,-9.199352264E-1
1.431141923E1,1.952648163E0,-5.404087067E0,-4.459915638E0
1.433118912E1,7.442182541E0,-5.703396797E0,-2.890738249E0
1.435096063E1,5.100709915E0,-7.283476830E0,-3.007885933E0
1.437073053E1,1.795308590E0,-8.468469620E0,-2.754874229E0
1.439050204E1,3.349808455E-1,-6.520361900E0,-1.973944068E0
1.441027193E1,2.274656057E0,-3.794904709E0,-2.107471943E0
1.443004339E1,2.752815008E0,-2.049593925E0,-3.697808027E0
1.444981329E1,2.790547371E0,-9.833755493E-1,-5.165807247E0
1.446958480E1,2.996942759E0,6.158819199E-1,-7.422840118E0
1.448935470E1,2.140024424E0,3.264004707E0,-8.045509338E0
1.450912621E1,1.050061226E0,7.118267059E0,-7.346992970E0
1.452889610E1,1.043318510E0,8.838118553E0,-6.494818687E0
1.454866756E1,8.000676632E-1,6.900851727E0,-6.183781624E0
1.456843746E1,-2.475711107E-1,5.617752552E0,-6.559591770E0
1.458820897E1,-2.378033638E0,5.671092033E0,-6.183721066E0
1.460797886E1,-2.178130388E0,5.612039566E0,-4.801237106E0
1.462775037E1,2.309063077E-1,5.151027203E0,-2.720916271E0
1.464752027E1,1.521729231E0,3.989680290E0,6.997208595E-1
1.466729173E1,7.177820206E-1,1.533783913E0,6.729841232E0
1.468706162E1,-1.962977529E0,-2.041358948E0,1.359534264E1
1.470683313E1,-1.511238694E0,-6.896615982E0,1.454499245E1
1.472660303E1,3.043671846E0,-8.764065742E0,8.991809845E0
1.474637454E1,5.237185478E0,-2.394955635E0,1.132210255E0
1.476614443E1,9.057060242E0,5.480138302E0,-2.031545639E0
1.478591589E1,1.058544064E1,5.642663002E0,-2.202684402E0
1.480568579E1,1.616025352E1,-5.942668915E0,-1.280209732E1
1.482545730E1,6.307389736E-1,-1.156594658E1,3.585665226E0
1.484522720E1,-1.354322624E1,-1.245599556E1,2.322014332E0
1.486499871E1,-9.775048256E0,2.607164383E0,-2.006317139E1
1.488476855E1,6.032641411E0,4.902795792E0,2.385823250E0
1.490454006E1,-3.368388653E0,-4.561996460E-2,-8.093643188E0
1.492430996E1,-5.723788261E0,-5.820451736E0,-3.882854223E0
1.494408147E1,-2.604325771E0,-5.124780655E0,-2.037128448E0
1.496385136E1,4.481428266E-1,-1.490129471E0,-1.259256840E0
1.498362282E1,2.061502457E0,1.868487835E0,-3.583102226E-1
1.500339272E1,1.362397194E0,3.411782265E0,-1.978905201E0
1.502316423E1,-1.616753489E-1,2.797137260E0,-9.402817488E-1
1.504293412E1,-1.343421459E0,1.175194740E0,6.538318396E-1
1.506270563E1,-2.379377604E0,9.286298752E-1,9.216498137E-1
1.508247548E1,-2.269881964E0,1.588488579E0,8.244539499E-1
1.510224699E1,-1.026573539E0,1.811592102E0,2.139133930E0
1.512201688E1,-1.469307244E-1,1.665783882E0,2.663961887E0
1.514178839E1,-4.752711654E-1,1.988603115E0,2.043309689E0
1.516155824E1,-8.984771371E-1,2.498009205E0,1.603197813E0
1.518132975E1,-1.447247386E0,1.756442070E0,2.868821621E0
1.520109964E1,-1.241603732E0,4.951267242E-1,3.140970230E0
1.522087115E1,2.959656715E-1,-7.431507111E-2,3.570718527E0
1.524064105E1,4.021657258E-2,-6.913080215E-1,5.129719734E0
1.526041251E1,-2.387170792E0,-2.626770020E0,4.333317757E0
1.528018240E1,-3.009389639E0,-3.616624832E0,4.824115753E0
1.529995391E1,-1.304575682E0,-3.058561325E0,3.653406143E0
1.531972376E1,4.686207175E-1,-2.174577713E0,3.207671881E0
1.533949527E1,3.614308834E-1,-2.459782600E0,3.546415806E0
1.535926516E1,8.902854323E-1,-2.871300697E0,4.499545097E0
1.537903662E1,1.696819663E-1,-4.778713226E0,3.913897991E0
1.539880652E1,-8.369117975E-1,-4.482383728E0,3.258056402E0
1.541857803E1,-3.927223682E0,-3.087932587E0,2.318582058E0
1.543834792E1,-3.977568626E0,-3.388518333E0,7.220480442E-1
1.545811938E1,-2.397981882E0,-4.722290039E0,-2.205155849E0
1.547788928E1,-3.157130718E0,-6.619900703E0,-3.896637201E0
1.549766079E1,-3.531871796E0,-8.157503128E0,-3.267839432E0
1.551743068E1,-2.040956497E0,-8.883769989E0,-7.809923887E-1
1.553720214E1,8.453757763E-1,-9.292243004E0,-2.337310314E0
1.555697204E1,2.152396917E0,-7.078857422E0,-3.398542643E0
1.557674350E1,2.507266998E0,-3.104868889E0,-4.289896488E0
1.559651339E1,1.937982917E0,3.296184540E-2,-6.045602798E0
1.561628490E1,8.328642249E-1,3.691649437E0,-7.026441097E0
1.563605475E1,8.434355855E-1,7.415868282E0,-6.775490284E0
1.565582626E1,3.925824165E-1,7.358263016E0,-6.896929264E0
1.567559615E1,-2.179749012E-1,6.547151566E0,-7.681471825E0
1.569536761E1,-1.916435957E-1,7.013916969E0,-9.645374298E0
1.571513751E1,8.572859764E-1,7.496600151E0,-9.648998260E0
1.573490897E1,7.801953554E-1,7.309094906E0,-7.257750034E0
1.575467886E1,-2.367615461E0,6.923172951E0,-3.096791506E0
1.577445037E1,-2.818716049E0,4.193666935E0,2.302483082E0
1.579422022E1,-4.150646925E-1,1.245491982E0,8.192665100E0
1.581399173E1,1.547575116E0,-3.871219635E0,1.551331615E1
1.583376157E1,5.415255547E0,-1.004411793E1,3.221360922E0
1.585353308E1,5.583091259E0,-6.269714355E0,4.152986050E0
1.587330298E1,3.133638382E0,-2.337153435E0,-7.757127285E0
1.589307443E1,5.833618641E-1,-9.067418098E0,-2.380429268E0
1.591284433E1,-9.956647873E0,-6.014906883E0,-4.684731483E0
1.593261579E1,-5.972395897E0,2.879195690E0,-8.929540634E0
1.595238568E1,3.893817663E0,1.213259697E0,-2.412790775E0
1.597215714E1,4.129443645E0,-1.405611038E0,-7.714917183E0
1.599192704E1,6.319385767E-1,-3.565591812E0,-1.325332880E0
1.601169855E1,-2.344474077E0,-3.084033966E0,-3.064625740E0
1.603146839E1,-3.078555107E0,-2.856402397E0,-7.686922550E-1
1.605123990E1,-4.109226227E0,-6.443185806E-1,4.131206274E-1
1.607100975E1,-4.274326324E0,2.239495277E0,6.770144701E-1
1.609078126E1,-2.328136921E0,3.827127457E0,8.228583336E-1
1.611055110E1,5.001449585E-2,2.800624847E0,7.175865769E-1
1.613032261E1,2.361036539E-1,1.154843330E0,1.889225483E0
1.615009246E1,3.838175535E-2,8.491172791E-1,2.698564529E0
1.616986397E1,5.292264819E-1,1.995801449E0,1.959839463E0
1.618963381E1,4.352861643E-1,3.602762222E0,1.835619450E0
1.620940532E1,-1.562163591E0,3.112451077E0,2.344344139E0
1.622917516E1,-3.245713949E0,6.918239594E-1,1.149875641E0
1.624894667E1,-3.848680496E0,1.762685776E-1,8.165144324E-1
1.626871652E1,-2.634006023E0,1.024169922E-1,2.386788130E0
1.628848803E1,-1.090108395E0,-8.271064758E-1,3.079094887E0
1.630825787E1,-8.398260474E-1,-1.398328781E0,4.556128502E0
1.632802938E1,-1.583795309E0,-2.196476936E0,4.909610748E0
1.634779923E1,-1.839136481E0,-2.725873947E0,4.343763351E0
1.636757074E1,-1.836444855E0,-1.787899017E0,3.408465385E0
1.638734058E1,-2.144390106E0,-1.654568672E0,2.603855371E0
1.640711209E1,-1.600321412E0,-2.249015808E0,3.468828440E0
1.642688193E1,-1.943396330E0,-2.612405777E0,3.610165358E0
1.644665345E1,-2.907682419E0,-4.744215965E0,1.405493736E0
1.646642329E1,-2.557170153E0,-5.541804314E0,1.600463510E0
1.648619480E1,-3.806165457E-1,-5.170841217E0,1.901067257E0
1.650596464E1,2.283804417E0,-4.977453232E0,1.201015711E0
1.652573615E1,1.336471438E0,-4.005623817E0,-1.494922638E-1
1.654550600E1,-1.076721072E0,-4.365468025E0,-2.366073608E0
1.656527751E1,-1.818170071E0,-5.903460503E0,-2.601524115E0
1.658504735E1,-1.623692274E0,-6.981288910E0,-3.729048252E0
1.660481886E1,1.649352908E-1,-7.063582420E0,-3.946282625E0
1.662458870E1,1.436215043E0,-5.484868050E0,-1.832902193E0
1.664436022E1,3.816503286E-2,-2.340712547E0,-1.467009544E0
1.666413006E1,-5.296587944E-2,4.216175079E-1,-3.508723497E0
1.668390157E1,4.175625443E-1,2.861002922E0,-4.995915890E0
1.670367141E1,-8.014714718E-2,4.491605759E0,-5.885376930E0
1.672344287E1,-2.302014828E-2,5.779216766E0,-6.078854561E0
1.674321277E1,1.781761646E-2,5.628142357E0,-6.085762501E0
1.676298423E1,1.216836810E0,4.363078117E0,-5.816332817E0
1.678275412E1,1.216326475E0,4.379420280E0,-6.202928543E0
1.680252558E1,7.536101341E-2,5.662100315E0,-6.788261414E0
1.682229548E1,-3.939485550E-1,6.840236664E0,-6.303217411E0
1.684206693E1,-2.085856199E-1,7.385286808E0,-4.734422684E0
1.686183683E1,3.978240490E-2,6.662375450E0,-1.598668575E0
1.688160829E1,-3.019340038E-1,4.624712467E0,3.174063206E0
1.690137818E1,3.256704807E-1,1.605276108E0,9.777805328E0
1.692114964E1,1.909799099E0,-2.433008194E0,1.281550121E1
1.694091954E1,3.256467104E0,-8.545579910E0,1.269766712E1
1.696069100E1,5.675573349E-1,-9.300424576E0,4.950991154E0
1.698046089E1,-1.080511093E0,1.494189262E0,-1.466413975E0
1.700023235E1,3.526805401E0,6.170667648E0,4.126825809E0
1.702000225E1,5.042167664E0,-1.164022064E1,-3.949919462E0
1.703977370E1,-6.531524658E-1,-2.359963799E1,-6.283769608E0
1.705954360E1,-6.489348412E0,1.840770721E0,-1.739146423E1
1.707931506E1,6.902120590E0,1.138302231E1,-3.536368847E0
1.709908496E1,-1.421840310E0,2.883500099E0,-3.925481796E0
1.711885641E1,-8.471556664E0,-6.987590790E0,-1.145750618E1
1.713862626E1,-2.501237631E0,-1.292557240E1,-1.442667246E0
1.715839777E1,-5.013351440E-1,-7.464945793E0,-1.140243769E0
1.717816761E1,1.171505451E0,-2.771091461E-2,-1.110347271E0
1.719793912E1,1.258235216E0,4.194037437E0,-2.646671295E0
1.721770897E1,1.081215382E0,4.509905815E0,-1.360651255E0
1.723748048E1,-1.233066797E0,2.775411129E0,3.463137150E-2
1.725725032E1,-2.489589214E0,1.740045547E-1,2.543330193E-3
1.727702183E1,-1.999965787E0,-7.392454147E-1,6.000285149E-1
1.729679167E1,-1.771521091E0,-3.921995163E-1,1.025284410E0
1.731656313E1,-8.798993826E-1,9.607667923E-1,1.806442380E0
1.733633303E1,1.783339083E-1,2.716083527E0,2.979916334E0
1.735610449E1,5.078644156E-1,4.006899834E0,2.970335484E0
1.737587438E1,-8.795800805E-2,3.679140091E0,2.294605970E0
1.739564584E1,-1.205817938E0,1.316265106E0,1.779420614E0
1.741541574E1,-1.786492825E0,-1.777372360E-1,2.761454344E0
1.743518720E1,-1.472240686E0,7.756423950E-2,4.310935020E0
1.745495704E1,-1.485199928E0,9.077072144E-2,4.990910530E0
1.747472855E1,-1.311873674E0,-1.069640160E0,4.503717899E0
1.749449839E1,-8.879527450E-1,-1.128282547E0,4.362388611E0
1.751426990E1,-2.763557196E0,-1.666409492E0,2.932940483E0
1.753403975E1,-2.767376423E0,-4.430690765E0,4.079389572E0
1.755381121E1,-1.034719944E0,-3.905874252E0,5.218175888E0
1.757358110E1,-9.167613983E-1,-2.609611511E0,5.070017815E0
1.759335256E1,-3.441718340E0,-2.809508324E0,2.933236122E0
1.761312246E1,-5.590867519E0,-3.788735390E0,1.348718286E0
1.763289391E1,-4.106634617E0,-6.337656021E0,-1.022127867E0
1.765266376E1,3.661363602E0,-6.480692863E0,-5.414644241E0
1.767243527E1,9.019454002E0,-6.285056114E0,-2.737529516E0
1.769220511E1,6.548570156E0,-7.237136841E0,-2.139507532E0
1.771197662E1,1.566728473E0,-7.839207649E0,-1.390440583E0
1.773174647E1,-1.757833123E0,-5.745070457E0,-1.220714092E0
1.775151792E1,4.630497098E-1,-3.673383713E0,-2.335950613E0
1.777128782E1,2.087985754E0,-2.124923706E0,-3.361851692E0
1.779105928E1,2.291784048E0,-6.846151352E-1,-5.048758507E0
1.781082917E1,2.359241486E0,1.335083008E0,-6.912936687E0
1.783060063E1,2.512688160E0,4.060259819E0,-7.512640953E0
1.785037048E1,2.746740818E0,6.965643883E0,-6.788747787E0
1.787014199E1,2.312386513E0,7.840754509E0,-5.566362381E0
1.788991183E1,1.063231945E0,5.728311539E0,-5.644044399E0
1.790968329E1,-3.568810225E-1,4.761665344E0,-6.299486637E0
1.792945318E1,-1.994415760E0,5.419511318E0,-6.141279221E0
1.794922464E1,-2.517293215E0,6.694365025E0,-4.574812889E0
1.796899454E1,-1.541217327E0,7.031844139E0,-2.930670500E0
1.798876600E1,-6.382970214E-1,5.655987263E0,-5.761628151E-1
1.800853584E1,-6.257909536E-2,2.667421818E0,4.355937958E0
1.802830735E1,1.780170918E0,-2.661852837E0,1.238941383E1
1.804807720E1,2.810868979E0,-9.246443748E0,1.592774296E1
1.806784865E1,1.430266857E0,-1.024831104E1,1.050242710E1
1.808761855E1,7.682671547E-1,-3.752152443E0,1.901909828E0
1.810739001E1,2.126887798E0,5.595432281E0,6.171994209E-1
1.812715985E1,3.878892899E0,8.349473953E0,1.171237469E0
1.814693136E1,7.336831093E0,-2.144374847E-1,-7.018326759E0
1.816670121E1,7.197523594E0,-1.214364815E1,-6.263327599E0
1.818647266E1,-4.142514706E0,-1.720052528E1,6.430406570E0
1.820624256E1,-6.424391747E0,1.720934868E0,-2.150521088E1
1.822601402E1,3.730066776E0,9.816894531E0,5.502557755E-2
1.824578386E1,-1.930531025E0,3.562065125E0,-7.907590866E0
1.826555537E1,-4.948479652E0,-5.526731491E0,-6.441354752E0
1.828532522E1,-2.479921818E0,-1.090727234E1,-2.266924381E0
1.830509667E1,-1.167965889E0,-6.313212395E0,-8.330636024E-1
1.832486657E1,9.449135661E-1,2.754745483E-1,-2.185442448E-1
1.834463803E1,1.684597135E0,4.025899887E0,-1.059347868E0
1.836440787E1,4.799302220E-1,4.253449440E0,-8.306782246E-1
1.838417933E1,-1.289530396E0,2.094173431E0,-3.565744162E-1
1.840394923E1,-2.451536179E0,-5.854358673E-1,6.251305342E-2
1.842372068E1,-1.659220457E0,-1.119636536E0,8.320962191E-1
1.844349053E1,1.359594241E-2,2.092342377E-1,1.858375430E0
1.846326204E1,1.042224765E0,1.933434486E0,2.544654846E0
1.848303188E1,4.928682745E-1,3.170032978E0,2.920654774E0
1.850280334E1,-4.235455394E-1,3.472996712E0,2.820444822E0
1.852257324E1,-1.189082742E0,2.423320770E0,2.150650263E0
1.854234470E1,-2.027653217E0,8.483171463E-1,2.451412678E0
1.856211454E1,-2.357979536E0,3.930521011E-1,2.922214985E0
1.858188600E1,-1.568148851E0,4.809751511E-1,3.298918724E0
1.860165589E1,-1.539667368E0,-3.339490891E-1,3.509187937E0
1.862142735E1,-1.602335691E0,-1.261824608E0,3.029958248E0
1.864119720E1,1.042581320E0,-2.197522163E0,4.158076286E0
1.866096871E1,5.707269907E-1,-2.050240517E0,4.122611523E0
1.868073855E1,-1.395382881E0,-3.008615494E0,4.136231422E0
1.870051001E1,-1.786197543E0,-4.115649223E0,4.948052883E0
1.872027985E1,-2.088907480E0,-5.214090347E0,4.269546986E0
1.874005136E1,-3.491899967E0,-4.617947578E0,2.691319942E0
1.875982120E1,-5.858639717E0,-3.573270798E0,1.434001088E0
1.877959266E1,-3.630578995E0,-3.542231560E0,-1.974410534E0
1.879936256E1,2.238031626E0,-4.701748848E0,-2.483708382E0
1.881913402E1,2.626258850E0,-6.111746788E0,-2.939286947E0
1.883890386E1,7.693985105E-1,-7.173420906E0,-2.978824139E0
1.885867532E1,-2.677810192E0,-5.903406143E0,-2.675338984E0
1.887844522E1,-2.512290001E0,-4.527894020E0,-2.946358681E0
1.889821667E1,3.677637577E-1,-4.120271683E0,-2.595113277E0
1.891798652E1,1.144546270E0,-3.252069473E0,-3.550840378E0
1.893775798E1,6.847826838E-1,-1.102179527E0,-4.734206676E0
1.895752787E1,-1.412207484E-1,1.658443451E0,-5.538640976E0
1.897729933E1,-4.672980905E-1,4.058365822E0,-6.222065926E0
1.899706917E1,-4.152133465E-1,5.431134701E0,-6.733249187E0
1.901684068E1,-1.069458723E-1,6.242101669E0,-6.924518108E0
1.903661053E1,5.724830627E-1,6.139741421E0,-7.197825909E0
1.905638199E1,1.033947587E0,6.083621979E0,-7.262649536E0
1.907615188E1,5.625460148E-1,5.871794701E0,-6.583511353E0
1.909592334E1,6.051094532E-1,5.501358986E0,-4.748767376E0
1.911569318E1,1.014119029E0,4.429086208E0,-2.219755411E0
1.913546464E1,7.239983082E-1,2.709383011E0,3.768072128E-1
1.915523454E1,4.484463334E-1,1.790819168E-1,4.279372215E0
1.917500600E1,1.692099094E0,-3.555191040E0,1.004063606E1
1.919477584E1,4.092985153E0,-8.250477791E0,1.419620419E1
1.921454735E1,2.720440865E0,-8.514444351E0,8.827764511E0
1.923431720E1,-4.327427149E-1,-3.570014000E0,-2.189230919E-1
1.925408865E1,1.442912102E0,3.011684418E0,1.034588814E-1
1.927385855E1,3.359201908E0,3.575635910E0,2.617910385E0
1.929363001E1,7.247670889E-1,-1.795996666E0,-3.987420082E0
1.931339985E1,-1.417804718E0,-3.486891747E0,-6.614334106E0
1.933317131E1,-1.398562431E0,-5.381765366E0,-3.572534323E0
1.935294115E1,-1.854112864E0,-2.608969688E0,-6.373275757E0
1.937271266E1,-4.545038700E0,1.097956657E0,-9.837412834E0
1.939248251E1,-2.781446457E0,-9.784049988E-1,-4.632372856E0
1.941225397E1,-1.795065641E0,-3.478237152E0,-3.411344767E0
1.943202386E1,-6.979740858E-1,-3.641495705E0,-2.369108677E0
1.945179532E1,1.651468515E0,-1.239472389E0,-1.618833065E0
1.947156516E1,2.986190796E0,1.358736038E0,-3.053850651E0
1.949133662E1,2.310492754E0,1.778864861E0,-1.881876588E0
1.951110647E1,3.692519665E-2,1.187970161E0,-4.211516976E-1
1.953087798E1,-2.554416656E0,1.445537567E0,-1.161864400E-1
1.955064782E1,-3.945983648E0,2.156120300E0,8.248507977E-3
1.957041928E1,-2.950184584E0,2.107657433E0,1.078538895E0
1.959018912E1,-1.821404457E0,1.482055664E0,2.118790388E0
1.960996063E1,-1.641937256E0,1.137961388E0,3.138175249E0
1.962973048E1,-1.640346050E0,7.741575241E-1,3.291957140E0
1.964950193E1,-1.379305243E0,5.498609543E-1,2.345899105E0
1.966927178E1,-1.703328788E-1,8.221912384E-2,1.910983920E0
1.968904324E1,1.942400336E-1,-1.848773956E-1,3.815608978E0
1.970881313E1,-9.410685301E-1,3.594141006E-1,4.953536034E0
1.972858459E1,-1.449125528E0,4.402961731E-1,3.505699635E0
1.974835443E1,-1.701475620E0,2.509050369E-1,1.033181190E0
1.976812589E1,-1.772010326E0,-4.765663147E-1,2.510797977E-1
1.978789574E1,-9.268347621E-1,-1.684941292E0,1.014794469E0
1.980766720E1,-2.710788250E-1,-1.834719658E0,2.521032810E0
1.982743709E1,-2.170347214E0,-1.776494026E0,3.453903198E0
1.984720855E1,-2.757886171E0,-2.834603310E0,3.994929552E0
1.986697839E1,-2.039755344E0,-2.752960205E0,4.793077469E0
1.988674985E1,-2.491622448E0,-2.847956657E0,4.568110943E0
1.990651970E1,-4.261590004E0,-3.785356522E0,4.230443001E0
1.992629121E1,-5.491382599E0,-4.434594154E0,2.812390327E0
1.994606105E1,-4.195301056E0,-4.316377640E0,3.533661366E-2
1.996583251E1,8.785442710E-1,-3.248382568E0,-2.570302963E0
1.998560235E1,7.505385876E0,-1.923573494E0,-2.776600599E0
2.000537381E1,7.973042011E0,-1.529649734E0,-2.804556608E0
2.002514370E1,3.385895491E0,-4.295816422E0,-2.932128429E0
2.004491516E1,-1.184446931E0,-6.098589897E0,-3.408088446E0
2.006468501E1,-2.806220531E0,-5.562678337E0,-2.776906252E0
2.008445647E1,-9.708184004E-1,-4.269593239E0,-1.910881400E0
2.010422636E1,5.237816572E-1,-2.973311424E0,-1.930137157E0
2.012399782E1,4.444670081E-1,-1.513022423E0,-2.360899925E0
2.014376766E1,-2.083720863E-1,4.164695740E-3,-4.715640068E0
2.016353912E1,8.196893930E-1,2.873637199E0,-6.743042946E0
2.018330902E1,2.639622688E0,5.851571083E0,-6.307339668E0
2.020308048E1,3.430211544E0,6.856907845E0,-5.665323734E0
2.022285032E1,3.431659222E0,5.979791164E0,-5.523227692E0
2.024262178E1,2.485928059E0,4.777739525E0,-5.467508316E0
2.026239167E1,9.644278288E-1,3.927394867E0,-5.488315582E0
2.028216313E1,-1.921595335E-1,3.823601723E0,-4.743314266E0
2.030193298E1,-6.074094772E-2,3.904617310E0,-3.328793287E0
2.032170449E1,3.047308922E-1,3.827520370E0,-1.635181427E0
2.034147433E1,2.403354645E-1,3.353926659E0,6.343526840E-1
2.036124579E1,-1.169348359E-1,2.451268673E0,4.464022636E0
2.038101568E1,3.353019953E-1,7.398605347E-3,9.244508743E0
2.040078714E1,1.470687389E0,-3.580390930E0,1.066140270E1
2.042055704E1,2.314555168E0,-8.124655724E0,1.058201599E1
2.044032850E1,3.403742552E0,-9.730835915E0,5.503551960E0
2.046009834E1,2.780970335E0,-2.268989563E0,1.947279453E0
2.047986985E1,2.770595074E0,6.911366463E0,2.736613274E0
2.049963970E1,3.285531044E0,6.626578331E0,-8.035373688E-1
2.051941115E1,1.337759852E0,-5.201082230E-1,-1.059407043E1
2.053918105E1,-1.080423832E0,-6.004396439E0,-5.862240314E0
2.055895251E1,3.713955402E0,-1.252882957E1,5.671935558E0
2.057872240E1,-1.899033308E0,-2.513484955E-1,-1.229733658E1
2.059849386E1,7.080698013E-1,5.477186203E0,-3.100123882E0
2.061826376E1,-3.195884228E0,1.369479179E0,-4.628390789E0
2.063803522E1,-5.469758511E0,-3.283888817E0,-6.958493233E0
2.065780511E1,-1.291453362E0,-4.736170769E0,-8.548293114E-1
2.067757657E1,3.696123362E-1,-1.769766808E0,-1.402507782E0
