"Time (s)","Linear Acceleration x (m/s^2)","Linear Acceleration y (m/s^2)","Linear Acceleration z (m/s^2)"
9.735044000E-3,1.330799937E0,-2.283999920E-1,2.433399916E0
2.958348200E-2,1.493899941E0,2.069000006E-1,2.506299973E0
4.944129400E-2,1.104300022E0,8.237999678E-1,1.970799923E0
6.928816900E-2,8.491999507E-1,1.294899940E0,2.097399950E0
8.914129400E-2,-6.076999903E-1,1.841899991E0,2.117899895E0
1.089944190E-1,-7.511000037E-1,1.464200020E0,1.843199968E0
1.288459820E-1,5.460000038E-2,1.088500023E0,1.924999952E0
1.486991070E-1,3.034999967E-1,4.561999738E-1,1.042299986E0
1.685522320E-1,-6.439999491E-2,-8.789999783E-2,4.621999860E-1
1.884037940E-1,-3.300999999E-1,-5.217999816E-1,1.289899945E0
2.082569190E-1,-7.552999854E-1,-5.482000113E-1,1.610299945E0
2.281100440E-1,-7.936999798E-1,-2.748000026E-1,6.222000122E-1
2.479616070E-1,-5.727999806E-1,2.608999908E-1,-1.013000011E0
2.678209820E-1,-3.093000054E-1,3.759000003E-1,-1.949099898E0
2.876678570E-1,6.319999695E-2,7.270000130E-2,-1.401199937E0
3.075209820E-1,-8.150000125E-2,-1.297999918E-1,-1.428000033E-1
3.273725440E-1,-3.482999802E-1,-5.246999860E-1,6.399999559E-2
3.472256690E-1,-3.109000027E-1,-1.436900020E0,-1.324800014E0
3.670787940E-1,-1.255999953E-1,-9.235999584E-1,-1.714800000E0
3.869303570E-1,4.677999914E-1,-8.737999797E-1,-2.612499952E0
4.067834820E-1,1.438799977E0,-9.583999515E-1,-2.720099926E0
4.266366070E-1,2.243499994E0,-5.809000134E-1,-1.708499908E0
4.464881690E-1,8.991000056E-1,-4.671999812E-1,-1.397400022E0
4.663412940E-1,-2.351999879E-1,-4.201000035E-1,-2.189699888E0
4.861944190E-1,6.985999942E-1,7.049999833E-1,4.180999994E-1
5.060475440E-1,3.144799948E0,2.974999905E0,3.451299906E0
5.258991070E-1,6.349799633E0,2.727099895E0,4.402699947E0
5.457522320E-1,6.636399746E0,1.616299987E0,3.604099989E0
5.656053570E-1,3.397899866E0,9.089999795E-1,5.109899998E0
5.854569190E-1,1.598999947E-1,-2.595999837E-1,8.282799721E0
6.053147320E-1,-1.617599964E0,-2.630199909E0,7.782299995E0
6.251631690E-1,-1.631799936E0,-2.164700031E0,5.767299652E0
6.450147320E-1,2.313999981E-1,-1.495299935E0,3.650199890E0
6.648678570E-1,1.825099945E0,-1.093400002E0,2.246899843E0
6.847209820E-1,2.521199942E0,-7.780999541E-1,1.725799918E0
7.045741070E-1,1.919399977E0,-4.504999816E-1,4.459999874E-2
7.244256690E-1,2.078000009E-1,5.156999826E-1,-3.007699966E0
7.442787940E-1,-2.298399925E0,1.172899961E0,-4.695600033E0
7.641319190E-1,-3.598099947E0,1.144699931E0,-3.962499857E0
7.839834820E-1,-2.947700024E0,6.502000093E-1,-2.907199860E0
8.038366070E-1,-1.699399948E0,-3.400999904E-1,-2.955299854E0
8.236881690E-1,2.999999851E-4,-5.486999750E-1,-3.620999813E0
8.435412940E-1,9.975999594E-1,-4.115999937E-1,-4.659699917E0
8.633928570E-1,2.660899878E0,-2.349999920E-2,-3.157799959E0
8.832459820E-1,3.757799864E0,2.962000072E-1,2.913699865E0
9.030991070E-1,3.251600027E0,2.572000027E-1,8.822899818E0
9.229522320E-1,1.714599967E0,-9.775999784E-1,9.023300171E0
9.428053570E-1,1.118899941E0,-1.294299960E0,4.450500011E0
9.626569190E-1,3.484799862E0,-5.378999710E-1,-3.017999828E-1
9.825100440E-1,5.977599621E0,5.683000088E-1,-3.072099924E0
1.002361607E0,7.104300022E0,9.290000051E-2,-3.865799904E0
1.022214732E0,5.648200035E0,1.828999966E-1,5.274999738E-1
1.042067857E0,2.461199999E0,-2.611999810E-1,2.797899961E0
1.061920982E0,4.889999703E-2,3.647999763E-1,3.581699848E0
1.081772544E0,-1.441999972E-1,1.278800011E0,3.220499992E0
1.101625669E0,-8.299999870E-3,7.429999709E-1,2.676999867E-1
1.121478794E0,-1.109799981E0,-1.502999961E-1,-2.823400021E0
1.141330357E0,-1.575199962E0,-7.893999815E-1,-1.165799975E0
1.161183482E0,2.755599976E0,-8.571999669E-1,1.592599988E0
1.181036607E0,7.807999611E0,-2.071999907E-1,2.582900047E0
1.200888169E0,8.219099998E0,5.569999814E-1,-4.485999942E-1
1.220741294E0,7.723599911E0,6.859999895E-1,-2.545699835E0
1.240594419E0,6.050499916E0,6.123999953E-1,-2.560199976E0
1.260452232E0,4.354799747E0,1.481999904E-1,-6.624999642E-1
1.280299107E0,3.971599817E0,-4.655999839E-1,-2.516999841E-1
1.300152232E0,3.423799992E0,-1.935699940E0,-6.457999945E-1
1.320005357E0,5.098099709E0,-5.022999763E0,-1.220600009E0
1.339856919E0,3.294299841E0,-5.061899662E0,-3.428999782E-1
1.359710044E0,1.236999989E0,-6.129199982E0,-6.665299892E0
1.379563169E0,1.177199960E0,-7.507999897E0,-8.012599945E0
1.399416294E0,6.004999876E-1,-4.035900116E0,-5.866000056E-1
1.419267857E0,3.484899998E0,-3.517599821E0,4.233399868E0
1.439120982E0,3.941900015E0,-3.205799818E0,5.948199749E0
1.458974107E0,1.531799912E0,-1.152799964E0,5.405499935E0
1.478825669E0,1.524299979E0,9.030000120E-2,3.537099838E0
1.498678794E0,2.061800003E0,1.426899910E0,1.633000016E0
1.518531919E0,2.332599878E0,2.405299902E0,-3.814999759E-1
1.538383482E0,1.701200008E0,1.735199928E0,-1.581799984E0
1.558236607E0,2.054299831E0,4.589999840E-2,-7.389000058E-1
1.578094419E0,5.163700104E0,-6.862999797E-1,1.444000006E0
1.597941294E0,7.885200024E0,-5.852999687E-1,6.555500031E0
1.617794419E0,9.091499329E0,-1.315799952E0,3.677799940E0
1.637647544E0,5.826900005E0,-2.088999897E-1,-6.389299870E0
1.657500669E0,5.103999972E-1,-7.914999723E-1,-1.250799942E1
1.677352232E0,-3.736199856E0,-1.657999903E-1,-6.792599678E0
1.697205357E0,-1.641999930E-1,-3.529999778E-2,6.413699627E0
1.717058482E0,-2.916699886E0,-1.317899942E0,8.208399773E0
1.736910044E0,-8.044099808E0,5.985000134E-1,3.467399836E0
1.756769419E0,-9.031099319E0,2.277600050E0,-1.194899917E0
1.776616294E0,-6.876299858E0,4.253299713E0,-5.424099922E0
1.796469419E0,-2.287899971E0,7.320099831E0,-4.122399807E0
1.816320982E0,4.149999917E-1,7.462299824E0,9.729999900E-1
1.836174107E0,-1.024899960E0,3.710399866E0,2.692699909E0
1.856031919E0,-3.232199907E0,-3.603999913E-1,9.613999724E-1
1.875878794E0,-3.832199812E0,-2.323600054E0,-7.189999521E-2
1.895731919E0,-2.005499840E0,-1.127799988E0,-2.171499968E0
1.915583482E0,-5.763999820E-1,1.243600011E0,6.051999927E-1
1.935436607E0,2.522699833E0,1.334399939E0,2.295500040E0
1.955289732E0,8.083000183E0,1.499799967E0,2.822599888E0
1.975142857E0,9.574500084E0,-1.593400002E0,5.690000057E-1
1.994994419E0,6.665299892E0,-7.953999639E-1,-1.090999991E-1
2.014847544E0,4.613399982E0,-3.887999952E-1,4.257999957E-1
2.034699107E0,2.898999929E0,-8.901999593E-1,9.095000029E-1
2.054552232E0,-1.097700000E0,9.715999961E-1,1.301899910E0
2.074405357E0,-1.395200014E0,1.326499939E0,5.661999583E-1
2.094258482E0,2.019999921E-1,7.712999582E-1,-2.507999837E-1
2.114110044E0,-7.871999741E-1,-2.241999954E-1,-8.000999689E-1
2.133963169E0,-4.362499714E0,-1.490899920E0,6.556000113E-1
2.153814732E0,-6.950999737E0,-1.241400003E0,1.479900002E0
2.173667857E0,-8.328700066E0,-2.180000022E-2,2.393999994E-1
2.193520982E0,-4.632800102E0,5.580999851E-1,-1.456200004E0
2.213374107E0,-1.796599984E0,2.818699837E0,-1.991599917E0
2.233225669E0,8.589999676E-1,1.741899967E0,-3.056200027E0
2.253078794E0,-5.261999965E-1,9.151999950E-1,-1.639999986E0
2.272931919E0,-2.086999893E0,1.092399955E0,-7.823999524E-1
2.292783482E0,-2.125299931E0,3.477999866E-1,-1.728199959E0
2.312636607E0,-1.467199922E0,-9.574999809E-1,-2.618000031E0
2.332489732E0,-1.642300010E0,-1.278699994E0,-2.703500032E0
2.352341294E0,-1.575099945E0,-1.082199931E0,1.807799935E0
2.372194419E0,-1.662899971E0,-4.460700035E0,-9.479999542E-1
2.392049107E0,-5.391699791E0,-1.289319992E1,3.112900019E0
2.411900669E0,-6.439899921E0,-1.728009987E1,5.149699688E0
2.431752232E0,-1.752289963E1,-1.908359909E1,-8.527999520E-1
2.451605357E0,-1.522779942E1,-7.808499813E0,-6.089399815E0
2.471458482E0,-6.128799915E0,5.119000077E-1,-9.415999651E-1
2.491310044E0,7.479999959E-2,3.505999804E0,2.615399837E0
2.511163169E0,2.098299980E0,2.537400007E0,2.353299856E0
2.531016294E0,1.139199972E0,8.744999766E-1,1.118899941E0
2.550869419E0,1.009400010E0,7.997999787E-1,-1.832599998E0
2.570720982E0,1.756599903E0,1.827600002E0,-1.987999916E0
2.590574107E0,3.363799810E0,2.195699930E0,-5.162000060E-1
2.610427232E0,4.625099659E0,2.106499910E0,4.473999739E-1
2.630278794E0,4.992199898E0,2.015100002E0,1.340399981E0
2.650131919E0,3.487599850E0,2.472599983E0,1.337399960E0
2.669985044E0,2.389600039E0,2.508599997E0,-4.948000014E-1
2.689842857E0,2.042999983E0,1.188699961E0,-3.746199846E0
2.709689732E0,1.151799917E0,-1.085399985E0,-6.379499912E0
2.729542857E0,9.722999930E-1,-2.160899878E0,-2.368799925E0
2.749400669E0,6.186999679E-1,-3.516999781E-1,1.910699964E0
2.769247544E0,1.338599920E0,1.087999940E-1,6.535999775E-1
2.789100669E0,1.310099959E0,4.750999808E-1,3.060999870E0
2.808953794E0,-2.016000032E0,5.857999921E-1,5.223700047E0
2.828811607E0,-7.359099865E0,-3.417799950E0,8.366999626E-1
2.848658482E0,-1.164629936E1,-8.061499596E0,1.725499988E0
2.868511607E0,-1.083290005E1,-5.258999825E0,3.381899834E0
2.888364732E0,-4.474599838E0,1.192099929E0,4.075599670E0
2.908216294E0,-3.220999837E-1,3.755100012E0,3.527499914E0
2.928069419E0,1.324100018E0,2.721899986E0,1.253999919E-1
2.947920982E0,3.238999844E0,-8.215000033E-1,-2.706300020E0
2.967774107E0,2.673199892E0,-3.247699976E0,-1.673799992E0
2.987627232E0,2.134299994E0,-3.650399923E0,-8.150000125E-2
3.007480357E0,1.418499947E0,-3.407999992E0,1.612199903E0
3.027331919E0,1.424399972E0,-3.559700012E0,2.457599878E0
3.047185044E0,4.600899696E0,-3.838899851E0,-4.738999844E0
3.067038169E0,4.509699821E0,-1.838999987E0,-4.442500114E0
3.086889732E0,1.829100013E0,-3.734999895E-1,-1.436299920E0
3.106747544E0,-1.114499927E0,4.035999775E-1,9.686999917E-1
3.126595982E0,-3.152699947E0,6.096999645E-1,3.101399899E0
3.146447544E0,-3.399299860E0,1.081300020E0,2.407500029E0
3.166300669E0,-2.152499914E0,1.207199931E0,1.009500027E0
3.186153794E0,-9.242999554E-1,1.156000018E0,3.869999945E-2
3.206006919E0,-4.772000015E-1,5.555999875E-1,-3.987999856E-1
3.225858482E0,-1.994999945E-1,-2.851999998E-1,-2.457200050E0
3.245716294E0,-1.283999979E-1,-1.540499926E0,-6.673500061E0
3.265563169E0,-2.940999866E-1,-2.758299828E0,-1.840999961E0
3.285417857E0,-7.717999816E-1,-2.577899933E0,1.922999918E-1
3.305269419E0,-1.632399917E0,-1.384999990E0,-1.411000013E0
3.325120982E0,-9.068999887E-1,-2.003399849E0,2.929999828E-1
3.344974107E0,1.485799909E0,-5.166899681E0,1.723599911E0
3.364827232E0,2.429499865E0,-8.190999985E0,2.121399879E0
3.384680357E0,1.853399992E0,-6.041699886E0,1.093699932E0
3.404531919E0,5.529999733E-2,-1.880199909E0,-3.938999772E-1
3.424385044E0,-2.766199827E0,1.640000008E-2,-1.617999911E0
3.444236607E0,-4.178499699E0,-8.359999657E-1,2.337999940E-1
3.464089732E0,-3.365899801E0,-2.519199848E0,6.631299973E0
3.483942857E0,-2.445799828E0,-2.312500000E0,6.242699623E0
3.503794419E0,-1.754999995E0,-2.124599934E0,3.135200024E0
3.523647544E0,-1.129599929E0,-2.620399952E0,-8.498099327E0
3.543500669E0,-2.429699898E0,-1.387099981E0,-5.102200031E0
3.563353794E0,-1.593899965E0,5.946999788E-1,-1.299999952E-1
3.583206919E0,4.954999983E-1,1.628399968E0,5.266999602E-1
3.603058482E0,9.702999592E-1,2.090899944E0,1.960899949E0
3.622911607E0,1.774199963E0,1.752099991E0,8.016999960E-1
3.642763169E0,2.356999874E0,1.215600014E0,-3.252999783E-1
3.662616294E0,2.032999992E0,1.187399983E0,-6.771999598E-1
3.682469419E0,1.084200025E0,2.055700064E0,-7.403999567E-1
3.702322544E0,9.016999602E-1,3.181599855E0,-2.092999965E-1
3.722174107E0,1.169000030E0,4.370199680E0,4.298000038E-1
3.742033482E0,2.284499884E0,5.112999916E0,5.499999970E-3
3.761880357E0,4.357999802E0,4.194699764E0,-7.398999929E-1
3.781731919E0,5.149499893E0,6.538000107E-1,-2.087100029E0
3.801591294E0,3.100600004E0,-3.714299917E0,-4.024099827E0
3.821439732E0,1.916599989E0,-6.243199825E0,-4.237899780E0
3.841291294E0,2.535300016E0,-4.958399773E0,-5.799999926E-3
3.861144419E0,1.867100000E0,-2.621899843E0,2.186599970E0
3.880995982E0,1.109200001E0,-7.805999517E-1,1.372999907E0
3.900849107E0,-9.704999924E-1,2.130399942E0,4.451799870E0
3.920702232E0,-5.015599728E0,2.649199963E0,5.531699657E0
3.940553794E0,-7.898399830E0,-9.429499626E0,-7.055999756E0
3.960406919E0,-1.150150013E1,-1.359700012E1,-3.818999827E-1
3.980258482E0,-7.626299858E0,-4.490299702E0,3.621899843E0
4.000111607E0,-3.062399864E0,4.436999798E0,-4.778999984E-1
4.019964732E0,-1.141799927E0,6.446199894E0,1.725999951E0
4.039817857E0,3.488999903E-1,4.645800114E0,1.913399935E0
4.059670982E0,1.018100023E0,-5.295000076E-1,2.951999903E-1
4.079522544E0,1.684999943E0,-4.261600018E0,-1.159999967E-1
4.099375669E0,1.931399941E0,-4.564799786E0,-6.699000001E-1
4.119227232E0,2.127199888E0,-2.726899862E0,-6.053000093E-1
4.139080357E0,1.968499899E0,-5.367999673E-1,4.019999802E-1
4.158933482E0,2.705399990E0,3.895999789E-1,1.808099985E0
4.178785044E0,3.955299854E0,-1.435899973E0,-4.586599827E0
4.198638169E0,3.029700041E0,-1.552099943E0,-3.459899902E0
4.218497544E0,9.478999972E-1,-1.170799971E0,1.304700017E0
4.238349107E0,-2.703999877E-1,-7.698999643E-1,2.731999874E0
4.258195982E0,-1.297399998E0,-3.023999929E-1,2.342099905E0
4.278049107E0,-2.081199884E0,2.178999931E-1,4.870999753E-1
4.297902232E0,-2.243499994E0,1.318999976E-1,-8.698999882E-1
4.317753794E0,-1.997899890E0,-1.560000032E-1,-9.036999941E-1
4.337606919E0,-1.156000018E0,-1.512999982E-1,-5.860999823E-1
4.357460044E0,-1.641999930E-1,-5.949000120E-1,-2.049999952E0
4.377311607E0,6.129999757E-1,-1.300799966E0,-2.090299845E0
4.397164732E0,8.747999668E-1,-2.148499966E0,-7.155999541E-1
4.417017857E0,-1.915999949E-1,-2.711199999E0,-1.213799953E0
4.436869419E0,-9.167999625E-1,-3.160199881E0,-6.811999679E-1
4.456722544E0,-1.335699916E0,-4.849800110E0,2.124999911E-1
4.476575669E0,-2.821999788E-1,-5.868799686E0,3.881999850E-1
4.496427232E0,8.555999994E-1,-4.548699856E0,4.220999777E-1
4.516280357E0,2.897999883E-1,-2.501600027E0,1.743899941E0
4.536133482E0,-2.151000023E0,-2.253099918E0,4.486799717E0
4.555985044E0,-4.370199680E0,-2.688499928E0,6.057600021E0
4.575838169E0,-4.634500027E0,-2.505300045E0,4.604499817E0
4.595691294E0,-4.558399677E0,-1.846499920E0,-2.906499863E0
4.615544419E0,-4.083199978E0,-8.872999549E-1,-6.108200073E0
4.635402232E0,-2.418099880E0,-1.139999926E-2,-1.630800009E0
4.655249107E0,1.065099955E0,1.669999957E-1,-3.579999879E-2
4.675102232E0,3.429399967E0,-2.432999909E-1,8.993999958E-1
4.694955357E0,3.393299818E0,3.334999979E-1,1.413800001E0
4.714806919E0,2.413100004E0,1.127599955E0,1.247999966E-1
4.734664732E0,1.043900013E0,1.924699903E0,-3.391999900E-1
4.754511607E0,5.769999623E-1,2.209499836E0,-4.726999998E-1
4.774364732E0,4.943999946E-1,3.118099928E0,-5.956000090E-1
4.794216294E0,1.514299989E0,4.691400051E0,-5.801999569E-1
4.814069419E0,1.853099942E0,4.914799690E0,-4.503999949E-1
4.833922544E0,1.940199971E0,4.382800102E0,-3.728999794E-1
4.853774107E0,2.648999929E0,3.551899910E0,-4.345999956E-1
4.873627232E0,3.047099829E0,7.228999734E-1,-3.385399818E0
4.893480357E0,1.661399961E0,-2.129199982E0,-3.393299818E0
4.913339732E0,1.166499972E0,-3.081099987E0,-1.894699931E0
4.933186607E0,1.017199993E0,-2.367199898E0,-9.449999779E-2
4.953038169E0,1.743999958E0,-2.446099997E0,-2.559099913E0
4.972891294E0,3.820599794E0,-2.861799955E0,2.536000013E-1
4.992742857E0,-1.301399946E0,-9.848999977E-1,1.020919991E1
5.012595982E0,-5.899399757E0,-4.877599716E0,1.160999984E-1
5.032449107E0,-1.084829998E1,-1.565319920E1,-9.349899292E0
5.052302232E0,-9.975599289E0,-6.205800056E0,1.807699919E0
5.072153794E0,-3.874499798E0,2.744599819E0,5.621399879E0
5.092006919E0,-1.594200015E0,6.124599934E0,6.235499859E0
5.111860044E0,-1.064800024E0,5.590799809E0,3.719399929E0
5.131711607E0,-1.018599987E0,2.949000001E-1,-6.390999556E-1
5.151564732E0,7.229999900E-1,-3.826900005E0,-2.726899862E0
5.171417857E0,2.613100052E0,-4.125099659E0,-2.890899897E0
5.191275669E0,3.233399868E0,-2.647799969E0,-1.895399928E0
5.211122544E0,3.011999846E0,-1.041899920E0,-7.472999692E-1
5.230981919E0,2.746099949E0,-5.982999802E-1,1.563199997E0
5.250828794E0,5.884899616E0,-2.131599903E0,-4.465399742E0
5.270680357E0,4.613500118E0,-1.961999893E0,-3.339799881E0
5.290533482E0,1.602999926E0,-1.258399963E0,1.707399964E0
5.310386607E0,-1.092800021E0,-3.581999838E-1,3.071799994E0
5.330238169E0,-2.926100016E0,-4.293999970E-1,3.273799896E0
5.350091294E0,-3.100399971E0,-2.011999935E-1,1.594200015E0
5.369944419E0,-2.742399931E0,-5.135999918E-1,-7.146999836E-1
5.389797544E0,-2.696799994E0,-8.209999800E-1,-4.062200069E0
5.409649107E0,-2.176300049E0,-1.786000013E0,-4.515199661E0
5.429502232E0,-1.025699973E0,-2.611899853E0,-2.049799919E0
5.449355357E0,1.487900019E0,-3.288199902E0,-6.772999763E-1
5.469213169E0,4.036699772E0,-5.063099861E0,1.031499982E0
5.489060044E0,2.040499926E0,-6.090600014E0,1.345700026E0
5.508913169E0,8.262000084E-1,-4.217400074E0,1.507200003E0
5.528764732E0,-1.819000006E0,-2.675899982E0,9.489999712E-2
5.548617857E0,-4.913899899E0,-2.411700010E0,-1.196999997E-1
5.568470982E0,-5.412999630E0,-3.461499929E0,3.871799946E0
5.588322544E0,-7.615299702E0,-4.565999985E0,4.876199722E0
5.608175669E0,-7.903899670E0,-3.372200012E0,-2.597699881E0
5.628027232E0,-5.126299858E0,-1.499699950E0,-5.584499836E0
5.647881919E0,-1.609799981E0,-5.219999701E-2,-1.815899968E0
5.667733482E0,1.552899957E0,6.351000071E-1,2.223199844E0
5.687586607E0,3.620599985E0,1.225499988E0,4.382800102E0
5.707438169E0,5.097699642E0,9.666000009E-1,1.383499980E0
5.727297544E0,3.692899942E0,3.154000044E-1,-2.365700006E0
5.747144419E0,1.816100001E0,9.521999955E-1,-2.040600061E0
5.766997544E0,1.254699945E0,2.271699905E0,-1.039999962E0
5.786849107E0,6.782000065E-1,3.876699924E0,3.752000034E-1
5.806702232E0,4.263999760E-1,5.341899872E0,5.974000096E-1
5.826555357E0,5.629999638E-1,6.646399975E0,5.683999658E-1
5.846406919E0,1.118899941E0,7.570799828E0,-2.536999881E-1
5.866260044E0,2.824100018E0,6.467599869E0,-3.837399960E0
5.886113169E0,2.482199907E0,8.581999540E-1,-7.742099762E0
5.905964732E0,1.059399962E0,-5.488399982E0,-9.123899460E0
5.925817857E0,2.218499899E0,-8.521299362E0,-3.574599981E0
5.945669419E0,3.714200020E0,-7.752899647E0,3.800599813E0
5.965522544E0,2.149399996E0,-4.334099770E0,7.084899902E0
5.985375669E0,-6.065599918E0,-6.782299995E0,-1.549999975E-2
6.005228794E0,-1.139960003E1,-1.434739971E1,-8.487500191E0
6.025080357E0,-6.367699623E0,-4.664999962E0,5.847799778E0
6.044933482E0,-1.442499995E0,4.679500103E0,7.973699570E0
6.064786607E0,1.168099999E0,7.441399574E0,5.970900059E0
6.084638169E0,1.708999991E0,6.415799618E0,2.391499996E0
6.104491294E0,5.882999897E-1,1.470999956E0,-2.868999958E0
6.124344419E0,-3.454999924E-1,-3.233099937E0,-4.011799812E0
6.144197544E0,-3.640999794E-1,-5.245899677E0,-3.032399893E0
6.164055357E0,1.489300013E0,-5.299699783E0,-2.248299837E0
6.183902232E0,2.119699955E0,-3.328299999E0,-8.896999955E-1
6.203755357E0,2.579699993E0,-1.463099957E0,2.851999998E-1
6.223613169E0,3.808699846E0,-9.447999597E-1,-1.429799914E0
6.243460044E0,3.044499874E0,-6.089999676E-1,-2.320699930E0
6.263313169E0,1.618999958E0,-4.438999891E-1,3.394999802E-1
6.283164732E0,-6.692000031E-1,3.335999846E-1,2.420199871E0
6.303024107E0,-2.192499876E0,1.530399919E0,2.253399849E0
6.322870982E0,-3.127499819E0,1.481599927E0,-1.188999936E-1
6.342722544E0,-3.250099897E0,1.096000001E-1,-2.517099857E0
6.362575669E0,-1.901600003E0,-3.989000022E-1,-3.319899797E0
6.382428794E0,5.105000138E-1,-6.709999591E-2,-2.617399931E0
6.402281919E0,2.637099981E0,-1.229399920E0,-1.304700017E0
6.422133482E0,3.641999960E0,-3.290199995E0,3.576000035E-1
6.441986607E0,4.684999943E0,-6.086400032E0,1.561800003E0
6.461839732E0,4.576099873E0,-8.704299927E0,1.286800027E0
6.481691294E0,-5.554999709E-1,-6.686100006E0,3.170999885E-1
6.501544419E0,-3.905799866E0,-4.447199821E0,-1.969099998E0
6.521397544E0,-6.844699860E0,-3.912400007E0,-1.212299943E0
6.541250669E0,-5.736999989E0,-5.583499908E0,4.367599964E0
6.561102232E0,-7.168999672E0,-6.448899746E0,7.602099895E0
6.580955357E0,-6.640799999E0,-4.039199829E0,4.011799812E0
6.600808482E0,-2.124799967E0,-1.826299906E0,-5.282899857E0
6.620660044E0,4.138999879E-1,-3.378999829E-1,-2.690599918E0
6.640513169E0,2.230000019E0,1.150499940E0,6.620999575E-1
6.660366294E0,3.561399937E0,2.525699854E0,1.967799902E0
6.680217857E0,3.765100002E0,3.356999874E0,1.639199972E0
6.700070982E0,1.958499908E0,3.057999849E0,-8.406999707E-1
6.719928794E0,6.613999605E-1,2.819900036E0,-1.939700007E0
6.739775669E0,7.321000099E-1,2.971699953E0,-1.890499949E0
6.759628794E0,3.619000018E-1,4.022599697E0,-1.263199925E0
6.779481919E0,1.870999932E-1,5.547599792E0,-6.726999879E-1
6.799335044E0,7.119999528E-1,5.997399807E0,-1.006099939E0
6.819186607E0,2.114899874E0,5.702300072E0,-1.641399980E0
6.839039732E0,3.998899937E0,4.507100105E0,-2.786799908E0
6.858897544E0,4.959799767E0,1.187899947E0,-4.928499699E0
6.878744419E0,3.425799847E0,-6.832399845E0,-1.045839977E1
6.898597544E0,2.134599924E0,-1.224529934E1,-6.917999744E0
6.918450669E0,1.984299898E0,-1.136249924E1,-8.342999816E-1
6.938302232E0,1.026000008E-1,-6.385299683E0,-6.060000062E-1
6.958155357E0,-4.182499886E0,-9.904199600E0,-2.893899918E0
6.978008482E0,-4.704799652E0,-1.425309944E1,4.437699795E0
6.997860044E0,-4.854199886E0,7.980999947E-1,1.110899925E1
7.017713169E0,-3.606999815E-1,8.186200142E0,4.112899780E0
7.037566294E0,2.460700035E0,1.081769943E1,1.416199923E0
7.057417857E0,2.161999941E0,7.592299938E0,-2.072999954E0
7.077270982E0,3.242000043E-1,-2.830999792E-1,-4.965300083E0
7.097124107E0,-2.203099966E0,-5.800600052E0,-2.748100042E0
7.116977232E0,-2.486299992E0,-8.090399742E0,-1.434700012E0
7.136835044E0,1.127599955E0,-6.939300060E0,-9.493999481E-1
7.156681919E0,3.201200008E0,-3.473399878E0,-3.546999991E-1
7.176535044E0,3.133899927E0,-5.945999622E-1,9.164999723E-1
7.196386607E0,2.756199837E0,9.522999525E-1,1.251199961E0
7.216245982E0,4.012700081E0,-1.098999977E-1,-6.834399700E0
7.236092857E0,2.860100031E0,-8.202999830E-1,-4.338599682E0
7.255944419E0,1.010399938E0,2.999999933E-2,3.348000050E-1
7.275803794E0,-9.636999965E-1,4.398999810E-1,3.255699873E0
7.295649107E0,-2.268300056E0,6.750999689E-1,4.237400055E0
7.315502232E0,-2.794800043E0,3.255999982E-1,2.111999989E0
7.335355357E0,-1.818499923E0,-5.033000112E-1,-1.903599977E0
7.355208482E0,-1.939999908E-1,-2.721999884E0,-9.516699791E0
7.375060044E0,2.431399822E0,-4.879899979E0,-4.269199848E0
7.394913169E0,5.679599762E0,-7.296199799E0,1.435099959E0
7.414766294E0,2.327899933E0,-9.159399986E0,1.571499944E0
7.434617857E0,-2.719399929E0,-8.402799606E0,5.504999757E-1
7.454470982E0,-6.911999702E0,-5.502699852E0,-2.315099955E0
7.474324107E0,-7.189599991E0,-4.934499741E0,2.087199926E0
7.494175669E0,-5.394599915E0,-6.086499691E0,6.632599831E0
7.514028794E0,-5.182099819E0,-4.204100132E0,5.222199917E0
7.533881919E0,-2.378999889E-1,-2.047499895E0,-1.873699903E0
7.553739732E0,2.785699844E0,-4.412999749E-1,-2.306799889E0
7.573586607E0,3.133899927E0,1.584800005E0,-1.334699988E0
7.593439732E0,2.949299812E0,3.839900017E0,7.329999655E-2
7.613292857E0,1.958899975E0,5.322000027E0,1.801399946E0
7.633144419E0,4.522999823E-1,5.206799984E0,3.914999962E-1
7.652997544E0,-1.176999927E0,4.285699844E0,-1.986799955E0
7.672850669E0,-6.292999983E-1,3.640199900E0,-2.555999994E0
7.692703794E0,5.856999755E-1,3.632499933E0,-1.875899911E0
7.712561607E0,1.288999915E0,4.792299747E0,-2.257699966E0
7.732408482E0,1.960899949E0,5.113299847E0,-2.708099842E0
7.752261607E0,1.757299900E0,3.286199808E0,-5.041399956E0
7.772113169E0,5.528999567E-1,6.941999793E-1,-3.598999977E0
7.791966294E0,-4.104000032E-1,-2.673199892E0,-1.391099930E0
7.811819419E0,-2.066400051E0,-6.613800049E0,-1.510299921E0
7.831670982E0,-4.480199814E0,-8.040499687E0,-1.579899907E0
7.851524107E0,-4.136899948E0,-4.389499664E0,-2.914899826E0
7.871377232E0,6.017000079E-1,7.304999828E-1,1.947699904E0
7.891228794E0,1.266600013E0,1.471099973E0,9.277699471E0
7.911081919E0,1.589999907E-2,-8.025699615E0,-8.791199684E0
7.930935044E0,-1.605999947E0,-7.133699894E0,5.621900082E0
7.950788169E0,-7.730000019E-1,-2.321999967E-1,8.194399834E0
7.970639732E0,1.228899956E0,3.571399927E0,3.773199797E0
7.990492857E0,6.403999925E-1,3.897399902E0,1.794299960E0
8.010345982E0,-5.397999883E-1,1.178300023E0,-2.089400053E0
8.030197544E0,-9.793999791E-1,-1.591099977E0,-2.755100012E0
8.050050669E0,4.559999704E-2,-3.573999882E0,-1.403199911E0
8.069903794E0,1.974199891E0,-3.871199846E0,3.310000002E-1
8.089755357E0,3.390299797E0,-2.587800026E0,1.496899962E0
8.109608482E0,3.084800005E0,-1.233699918E0,1.543999910E0
8.129461607E0,1.447399974E0,-3.332999945E-1,-2.969999909E-1
8.149314732E0,-4.434999824E-1,1.710799932E0,-6.616299629E0
8.169166294E0,-1.595999897E-1,4.931999743E-1,-2.776899815E0
8.189019419E0,-3.643999994E-1,-2.848999798E-1,2.626000047E-1
8.208877232E0,-1.114300013E0,3.965999782E-1,1.850699902E0
8.228724107E0,-1.084299922E0,7.676999569E-1,2.140100002E0
8.248577232E0,-1.139400005E0,4.359999895E-1,2.760999799E-1
8.268430357E0,-1.578899980E0,-1.046999931E0,-3.054499865E0
8.288281919E0,-1.531099916E0,-1.250000000E0,-5.120599747E0
8.308135044E0,6.729999930E-2,-1.184800029E0,-8.342999816E-1
8.327988169E0,1.209100008E0,-1.773099899E0,1.345999956E0
8.347839732E0,1.446399927E0,-2.069299936E0,3.743000031E-1
8.367692857E0,1.513899922E0,-1.977599978E0,3.958999813E-1
8.387545982E0,2.041800022E0,-2.815199852E0,-2.513999939E-1
8.407399107E0,3.406199932E0,-6.200500011E0,3.596999943E-1
8.427250669E0,1.616899967E0,-6.388999939E0,1.111699939E0
8.447103794E0,-1.180799961E0,-4.416800022E0,1.145799994E0
8.466955357E0,-2.026099920E0,-3.214599848E0,3.980499983E0
8.486808482E0,-3.483899832E0,-3.619799852E0,5.279799938E0
8.506661607E0,-5.099799633E0,-5.627799988E0,4.157499790E0
8.526513169E0,-5.404699802E0,-6.840600014E0,2.887899876E0
8.546366294E0,-5.987799644E0,-5.168499947E0,-3.577699900E0
8.566219419E0,-3.694899797E0,-2.870399952E0,-5.748399734E0
8.586072544E0,-6.412000060E-1,-3.224000037E-1,4.953999817E-1
8.605924107E0,2.155299902E0,2.122599840E0,4.140899658E0
8.625777232E0,4.899099827E0,3.266399860E0,2.626399994E0
8.645628794E0,5.388299942E0,3.339099884E0,-1.109699965E0
8.665481919E0,2.704499960E0,2.295300007E0,-2.713599920E0
8.685335044E0,4.657999873E-1,2.273399830E0,-2.102900028E0
8.705194419E0,-1.140100002E0,3.128700018E0,-4.494999945E-1
8.725039732E0,-2.244999886E0,4.066199780E0,2.081999928E-1
8.744892857E0,-2.541399956E0,5.332599640E0,-3.233000040E-1
8.764745982E0,-1.717899919E0,6.157999992E0,-1.943799973E0
8.784597544E0,3.825999796E-1,6.304599762E0,-4.215199947E0
8.804450669E0,3.085500002E0,1.554499984E0,-1.045520020E1
8.824303794E0,2.153699875E0,-5.099400043E0,-8.163599968E0
8.844155357E0,1.740099907E0,-6.932699680E0,-3.697199821E0
8.864008482E0,3.877399921E0,-6.223599911E0,-1.031999946E0
8.883861607E0,3.816799879E0,-5.547399998E0,-5.202999711E-1
8.903714732E0,1.166800022E0,-6.207200050E0,-6.304899693E0
8.923566294E0,-3.916999996E-1,-9.501199722E0,4.683700085E0
8.943419419E0,-4.520400047E0,-9.347000122E0,6.707900047E0
8.963272544E0,-5.106400013E0,-2.621500015E0,6.813199997E0
8.983124107E0,-3.156699896E0,5.497999668E0,4.792599678E0
9.002977232E0,-1.395999908E0,8.168700218E0,2.592499971E0
9.022830357E0,-1.027099967E0,4.232399940E0,-1.489999890E-1
9.042683482E0,-4.661999941E-1,-1.618799925E0,-2.187000036E0
9.062535044E0,3.303999901E-1,-5.885499954E0,-2.664799929E0
9.082388169E0,1.574000001E0,-7.116600037E0,-1.897099972E0
9.102241294E0,2.296999931E0,-5.177399635E0,1.005299926E0
9.122092857E0,2.115799904E0,-3.921999931E-1,1.953599930E0
9.141945982E0,2.422799826E0,8.634999990E-1,1.821699977E0
9.161799107E0,3.052599907E0,7.281000018E-1,-5.407999754E-1
9.181652232E0,1.992100000E0,9.563999772E-1,-9.211799622E0
9.201510044E0,1.010200024E0,-2.584999800E-1,-3.720599890E0
9.221361607E0,-7.524999976E-1,-6.459999681E-1,6.078000069E-1
9.241208482E0,-1.486199975E0,-2.279999852E-2,3.062500000E0
9.261061607E0,-1.778699994E0,4.950999916E-1,3.716300011E0
9.280914732E0,-1.383199930E0,9.957000017E-1,1.936800003E0
9.300767857E0,-1.012199998E0,3.968999982E-1,6.615999937E-1
9.320619419E0,-1.011699915E0,-1.028399944E0,2.211999893E-1
9.340472544E0,-4.973999858E-1,-2.166199923E0,-5.456099987E0
9.360325669E0,-5.162999630E-1,-2.145900011E0,-9.704500198E0
9.380177232E0,-5.790000036E-2,-2.154799938E0,-3.208999932E-1
9.400030357E0,1.390599966E0,-2.518800020E0,3.383800030E0
9.419883482E0,2.333099842E0,-3.392899990E0,2.506899834E0
9.439736607E0,3.695400000E0,-5.635799885E0,-2.599000037E-1
9.459588169E0,5.236399651E0,-6.651099682E0,5.906000137E-1
9.479441294E0,3.670199871E0,-6.077699661E0,1.895499945E0
9.499294419E0,-8.075999618E-1,-4.021800041E0,2.326900005E0
9.519145982E0,-4.169499874E0,-3.190899849E0,2.861599922E0
9.538999107E0,-6.538300037E0,-4.367099762E0,3.125900030E0
9.558852232E0,-5.265699863E0,-6.695799828E0,2.941900015E0
9.578703794E0,-4.736999989E0,-6.305299759E0,3.132799864E0
9.598556919E0,-5.237400055E0,-2.825700045E0,-1.896399975E0
9.618413169E0,-1.752099991E0,-5.717999935E-1,-3.318300009E0
9.638261607E0,1.286599994E0,1.042500019E0,-5.455999970E-1
9.658114732E0,3.710999966E0,2.282999992E0,1.938899994E0
9.677967857E0,5.277299881E0,2.904500008E0,2.574199915E0
9.697825669E0,4.619999886E0,2.628900051E0,-1.402799964E0
9.717672544E0,1.909999967E0,1.439799905E0,-2.148499966E0
9.737525669E0,6.880999804E-1,1.177999973E-1,-8.016999960E-1
9.757378794E0,3.210999966E-1,-1.045899987E0,1.826999933E-1
9.777236607E0,-1.395099998E0,-6.434999704E-1,6.746999621E-1
9.797083482E0,-2.590499878E0,1.247099996E0,-8.403999805E-1
9.816935044E0,-2.744599819E0,3.810299873E0,-1.658800006E0
9.836788169E0,-2.759799957E0,4.643599987E0,-3.326599836E0
9.856641294E0,-1.209800005E0,4.744899750E0,-2.917899847E0
9.876492857E0,8.000999689E-1,3.309599876E0,-1.053499937E0
9.896345982E0,1.195199966E0,1.137199998E0,9.748999476E-1
9.916230357E0,5.964999795E-1,6.599999964E-3,5.762000084E-1
9.936050669E0,5.498999953E-1,3.430999815E-1,-1.767099977E0
9.955903794E0,1.103399992E0,3.034999967E-1,-5.164199829E0
9.975756919E0,4.678199768E0,-3.450999856E-1,-5.117199898E0
9.995608482E0,8.277699471E0,-3.335999966E0,5.883299828E0
1.001546161E1,2.761299849E0,-1.424720001E1,1.230249977E1
1.003531473E1,-4.528100014E0,-1.999479866E1,7.163999677E-1
1.005516786E1,-1.109280014E1,-8.758199692E0,-5.402699947E0
1.007501942E1,-5.735300064E0,-5.606999993E-1,3.005000055E-1
1.009487254E1,-1.724900007E0,4.097599983E0,5.620800018E0
1.011472567E1,-1.090799928E0,4.781699657E0,6.441400051E0
1.013457723E1,4.676999748E-1,1.137799978E0,2.396399975E0
1.015443036E1,1.465799928E0,-8.316999674E-1,-2.407299995E0
1.017428348E1,1.567999959E0,-1.401899934E0,-3.659699917E0
1.019413661E1,1.997099996E0,-6.718999743E-1,-2.810299873E0
1.021402254E1,1.847999930E0,1.070999950E-1,-1.740099907E0
1.023384129E1,1.772099972E0,2.065999955E-1,-8.314999938E-1
1.025369911E1,2.621299982E0,-1.861999929E-1,7.301999927E-1
1.027354598E1,2.292000055E0,-2.930999994E-1,8.097999692E-1
1.029339911E1,1.229799986E0,-6.729999781E-1,-2.759099960E0
1.031325223E1,6.026999950E-1,-1.665399909E0,-7.290999889E-1
1.033311004E1,-1.437699914E0,-2.077299833E0,-8.915999532E-1
1.035295692E1,-2.031699896E0,-1.334299922E0,-9.088999629E-1
1.037281004E1,-1.169799924E0,-3.628999889E-1,5.740000010E-1
1.039266317E1,-1.773999929E-1,6.905999780E-1,4.296000004E-1
1.041251473E1,8.626999855E-1,1.096000001E-1,-1.898899913E0
1.043236786E1,2.600000007E-3,-8.992999792E-1,-3.388399839E0
1.045222098E1,-9.702000022E-1,-1.517699957E0,-4.281999767E-1
1.047207254E1,-1.307799935E0,-1.342499971E0,1.137300014E0
1.049192567E1,-1.111400008E0,-1.013800025E0,8.989999890E-1
1.051177879E1,4.253999889E-1,-2.465499878E0,-7.277999520E-1
1.053163036E1,1.471799970E0,-4.701799870E0,-7.463999987E-1
1.055148348E1,2.727099895E0,-5.702300072E0,1.885999888E-1
1.057133661E1,3.084399939E0,-5.579599857E0,2.476300001E0
1.059118817E1,9.896999598E-1,-5.561100006E0,3.606400013E0
1.061104129E1,-2.787199974E0,-5.094299793E0,1.648899913E0
1.063089442E1,-4.635299683E0,-3.676499844E0,2.160300016E0
1.065074754E1,-5.692399979E0,-3.313999891E0,1.315799952E0
1.067059911E1,-6.001399994E0,-2.213700056E0,-1.712899923E0
1.069045692E1,-4.891900063E0,-1.214699984E0,-3.186699867E0
1.071030536E1,-1.467999935E0,-3.881999850E-1,-4.269999862E-1
1.073015692E1,1.979399920E0,3.070999980E-1,2.024699926E0
1.075001473E1,4.498499870E0,8.070999980E-1,2.413599968E0
1.076986317E1,4.532899857E0,1.013499975E0,6.001999974E-1
1.078971629E1,2.500499964E0,1.059199929E0,-8.375999928E-1
1.080956786E1,8.836999536E-1,1.168699980E0,-1.470600009E0
1.082942098E1,-3.628999889E-1,1.051900029E0,-1.495800018E0
1.084927411E1,-1.697099924E0,1.990499973E0,-2.938999832E-1
1.086912567E1,-1.432299972E0,4.075699806E0,1.106099963E0
1.088898348E1,-1.070999950E-1,6.242799759E0,7.810999751E-1
1.090883192E1,1.947899938E0,7.458199978E0,-1.224699974E0
1.092868348E1,3.693899870E0,6.851799965E0,-4.285099983E0
1.094854129E1,3.941399813E0,2.886399984E0,-6.813799858E0
1.096838973E1,3.032500029E0,-4.275599957E0,-5.325599670E0
1.098824129E1,3.770099878E0,-9.065099716E0,-4.209899902E0
1.100809442E1,3.552199841E0,-9.164599419E0,-1.626099944E0
1.102794598E1,1.778100014E0,-5.665599823E0,-2.101199865E0
1.104779911E1,-1.138000011E0,-3.179899931E0,-5.543699741E0
1.106765223E1,-2.438999891E0,-3.878700018E0,-4.438000023E-1
1.108750536E1,-6.249799728E0,-1.716300011E0,1.028369999E1
1.110735692E1,-7.828399658E0,-2.333199978E0,3.025599957E0
1.112721004E1,-2.764299870E0,6.566999555E-1,5.302799702E0
1.114706317E1,1.004699945E0,2.503700018E0,3.700399876E0
1.116692098E1,1.625800014E0,1.621299982E0,7.493999600E-1
1.118677411E1,1.367999911E0,-1.004999951E-1,-3.432999849E-1
1.120664754E1,4.341999888E-1,-2.603499889E0,-1.868699908E0
1.122647254E1,1.126299977E0,-5.129899979E0,-1.048399925E0
1.124632567E1,1.910099983E0,-3.618599892E0,1.203999996E0
1.126617879E1,3.400300026E0,-1.579999924E0,2.236700058E0
1.128603036E1,3.503499985E0,2.741999924E-1,-3.667999804E-1
1.130588348E1,2.223700047E0,1.253999949E0,-8.914899826E0
1.132573661E1,1.212099910E0,2.633000016E-1,-5.400399685E0
1.134558973E1,-8.840000033E-1,2.819999866E-2,-1.486299992E0
1.136544286E1,-2.110399961E0,8.129999787E-2,2.976599932E0
1.138529598E1,-2.729899883E0,5.490999818E-1,4.933799744E0
1.140514754E1,-1.990999937E0,7.049999833E-1,2.905799866E0
1.142500067E1,-7.753999829E-1,2.536999881E-1,1.181399941E0
1.144485223E1,-7.612999678E-1,6.169999763E-2,-4.720000029E-1
1.146470536E1,-6.259999871E-1,-3.522000015E-1,-6.833399773E0
1.148455692E1,-3.428999782E-1,-1.984299898E0,-5.076799870E0
1.150441004E1,1.580299973E0,-3.331499815E0,-9.648000002E-1
1.152426317E1,4.756999969E0,-3.800799847E0,1.415999979E-1
1.154411629E1,6.520099640E0,-5.900899887E0,1.269699931E0
1.156396786E1,5.062299728E0,-7.765199661E0,3.144199848E0
1.158382098E1,2.171399832E0,-7.593499660E0,4.410200119E0
1.160367411E1,-2.837499857E0,-5.515500069E0,2.721099854E0
1.162352567E1,-6.000799656E0,-3.199499846E0,2.043799877E0
1.164338504E1,-6.322000027E0,-3.586499929E0,1.998399973E0
1.166323192E1,-3.913699865E0,-5.881199837E0,2.645200014E0
1.168308973E1,-6.346600056E0,-5.878499985E0,2.494099855E0
1.170293661E1,-5.004299641E0,-3.567699909E0,-3.314800024E0
1.172279598E1,-1.723999977E0,-6.883999705E-1,-2.289499998E0
1.174264129E1,1.079699993E0,1.535599947E0,-5.779999867E-2
1.176249442E1,3.743899822E0,2.577600002E0,1.132200003E0
1.178234754E1,5.057699680E0,3.118700027E0,9.307999611E-1
1.180220067E1,4.196599960E0,2.508199930E0,-1.018899918E0
1.182205223E1,1.227999926E0,1.440599918E0,-1.999599934E0
1.184190536E1,-7.544999719E-1,1.487499952E0,-7.522000074E-1
1.186176317E1,-1.438300014E0,2.071399927E0,6.680999994E-1
1.188161004E1,-1.681299925E0,2.839799881E0,5.286999941E-1
1.190146317E1,-1.474200010E0,3.385299921E0,-2.644999921E-1
1.192131629E1,-2.981999815E-1,5.135999680E0,-1.390100002E0
1.194116942E1,2.247999907E0,5.909699917E0,-3.154500008E0
1.196102098E1,4.371999741E0,4.688600063E0,-4.927499771E0
1.198087411E1,3.125299931E0,1.022699952E0,-4.809199810E0
1.200072723E1,-9.835999608E-1,-3.205199957E0,-6.017899990E0
1.202058036E1,-3.116299868E0,-6.707900047E0,-5.474599838E0
1.204043192E1,3.376999795E-1,-9.274899483E0,-4.753699780E0
1.206028504E1,4.508999884E-1,-8.217000008E0,1.351389980E1
1.208013661E1,-2.538300037E0,-1.202989960E1,-6.144999862E-1
1.209998973E1,-3.848099947E0,-4.770299911E0,5.999199867E0
1.211984286E1,-1.797399998E0,3.961899996E0,6.540199757E0
1.213970067E1,-6.900999546E-1,6.567499638E0,3.375399828E0
1.215954754E1,-9.296000004E-1,4.420899868E0,1.921299934E0
1.217940536E1,-4.364999831E-1,-9.700999856E-1,-1.936899900E0
1.219928036E1,6.999999881E-1,-4.523200035E0,-2.939299822E0
1.221910536E1,2.161200047E0,-5.507299900E0,-1.460199952E0
1.223895848E1,2.263099909E0,-3.545699835E0,6.327999830E-1
1.225881161E1,2.213000059E0,-1.091099977E0,1.966099977E0
1.227866942E1,2.222599983E0,3.224000037E-1,7.986999750E-1
1.229851629E1,2.113899946E0,1.744099975E0,-7.487699986E0
1.231836942E1,1.546599984E0,1.070099950E0,-6.559899807E0
1.233822723E1,1.326699972E0,-6.225000024E-1,-7.910000086E-1
1.235807411E1,-4.133999944E-1,-1.193199992E0,3.158999920E0
1.237792567E1,-1.776499987E0,-4.109999835E-1,4.702600002E0
1.239777879E1,-2.615200043E0,4.005999863E-1,2.745399952E0
1.241763192E1,-2.597800016E0,-1.632999927E-1,-9.200000204E-3
1.243748348E1,-2.006099939E0,-1.302699924E0,-1.686100006E0
1.245733661E1,-1.288999915E0,-1.810699940E0,-2.837299824E0
1.247718973E1,-2.763999999E-1,-9.907999635E-1,-3.918399811E0
1.249704286E1,3.346000016E-1,-9.199000001E-1,-1.982999921E0
1.251689442E1,1.792199969E0,-1.486999989E0,5.059999973E-2
1.253674754E1,4.380599976E0,-3.345999956E0,1.590399981E0
1.255660067E1,6.701799870E0,-6.359200001E0,2.895699978E0
1.257645223E1,7.065599918E0,-9.283800125E0,2.559999943E0
1.259630536E1,1.932199955E0,-8.873499870E0,1.459399939E0
1.261615848E1,-5.890699863E0,-4.756499767E0,-8.652999997E-1
1.263601004E1,-8.377900124E0,-2.434599876E0,7.034999728E-1
1.265586317E1,-4.658099651E0,-2.974799871E0,3.369999886E0
1.267572254E1,-3.341199875E0,-3.274799824E0,4.711899757E0
1.269556942E1,-6.049299717E0,-2.589599848E0,3.333099842E0
1.271542098E1,-3.373799801E0,-2.197999954E0,-4.813199997E0
1.273527411E1,-8.389999717E-2,-1.293999910E0,-3.138799906E0
1.275512723E1,2.436100006E0,7.809999585E-2,6.195999980E-1
1.277497879E1,4.616099834E0,1.366599917E0,1.964800000E0
1.279483192E1,5.415499687E0,2.040899992E0,2.388900042E0
1.281468504E1,3.781199932E0,1.586099982E0,-1.664000005E-1
1.283453661E1,4.232999980E-1,4.901999831E-1,-1.424499989E0
1.285438973E1,-1.768299937E0,9.068999887E-1,-1.583899975E0
1.287424286E1,-2.355099916E0,2.301399946E0,-8.698999882E-1
1.289409598E1,-1.746299982E0,3.734799862E0,-7.067999840E-1
1.291394754E1,-1.407400012E0,5.310400009E0,-1.105599999E0
1.293380067E1,-7.075999975E-1,6.479499817E0,-1.089299917E0
1.295365379E1,1.072299957E0,6.762399673E0,-1.864899993E0
1.297351161E1,3.321699858E0,4.529500008E0,-3.353999853E0
1.299335848E1,3.624599934E0,-1.301199913E0,-7.693299770E0
1.301321161E1,3.645799875E0,-7.221099854E0,-1.015049934E1
1.303306942E1,4.202600002E0,-8.822099686E0,-4.509599686E0
1.305291629E1,2.816099882E0,-6.739299774E0,4.250000045E-2
1.307276942E1,-8.007999659E-1,-3.417500019E0,-1.123499990E0
1.309262254E1,-3.224599838E0,-4.251299858E0,-2.945400000E0
1.311247411E1,-5.200099945E0,-6.087100029E0,7.250699997E0
1.313232723E1,-6.525300026E0,-6.593599796E0,6.295399666E0
1.315218036E1,-4.147299767E0,-3.800899982E0,3.777099848E0
1.317203817E1,-8.802999854E-1,2.155599833E0,4.573400021E0
1.319191161E1,6.132000089E-1,4.105199814E0,2.105700016E0
1.321173817E1,7.353999615E-1,2.836099863E0,5.173999667E-1
1.323158973E1,2.979999781E-1,-5.891000032E-1,-1.002699971E0
1.325144286E1,3.370999992E-1,-4.050099850E0,-1.919199944E0
1.327129598E1,1.404500008E0,-5.739599705E0,-6.809999943E-1
1.329114911E1,2.306200027E0,-4.647799969E0,2.587100029E0
1.331100067E1,3.240499973E0,-1.137099981E0,2.292500019E0
1.333085379E1,2.852499962E0,5.429999828E-1,-3.788999915E-1
1.335070692E1,1.140699983E0,3.049799919E0,-1.393989944E1
1.337055848E1,1.364099979E0,1.452000022E0,-3.853999853E0
1.339041629E1,8.220999837E-1,-9.034999609E-1,2.214999914E0
1.341026473E1,-5.881999731E-1,-1.728899956E0,3.910199881E0
1.343011786E1,-1.634599924E0,-1.200500011E0,3.757999897E0
1.344996942E1,-2.509099960E0,-1.017999947E-1,2.099999934E-1
1.346982254E1,-2.068599939E0,2.410000004E-2,-9.857999682E-1
1.348967411E1,-1.248600006E0,1.065999940E-1,-6.816999912E-1
1.350952723E1,-1.499999966E-2,-4.812999964E-1,7.329999655E-2
1.352938036E1,7.967000008E-1,-1.257099986E0,5.986999869E-1
1.354923348E1,8.917999864E-1,-1.270399928E0,-6.629999727E-2
1.356908504E1,7.105000019E-1,-8.519999981E-1,-1.159600019E0
1.358893817E1,1.089800000E0,-9.851999879E-1,1.131999940E-1
1.360878973E1,2.323499918E0,-1.940899968E0,1.393999934E0
1.362864286E1,2.403800011E0,-2.761999846E0,5.594999790E-1
1.364849598E1,1.434599996E0,-3.725299835E0,-1.599799991E0
1.366835379E1,5.029999614E-1,-4.664099693E0,-2.086799860E0
1.368820067E1,-1.471000016E-1,-4.399099827E0,-8.635999560E-1
1.370805379E1,-4.414999783E-1,-4.162499905E0,4.305000007E-1
1.372791161E1,-9.613999724E-1,-3.279299974E0,2.050400019E0
1.374775848E1,-1.644899964E0,-2.836299896E0,3.549199820E0
1.376761161E1,-3.147699833E0,-3.573899984E0,3.527999878E0
1.378746317E1,-4.263199806E0,-4.540999889E0,2.746299982E0
1.380731629E1,-3.542500019E0,-5.012799740E0,7.220000029E-1
1.382716942E1,-3.549799919E0,-3.587299824E0,-2.522099972E0
1.384702254E1,-2.024800062E0,-1.763999939E0,-1.736499906E0
1.386687411E1,9.068999887E-1,-3.471999764E-1,4.992999732E-1
1.388672723E1,2.326499939E0,7.022999525E-1,2.667599916E0
1.390658036E1,2.823499918E0,1.488299966E0,6.254999638E-1
1.392643192E1,1.964499950E0,1.936899900E0,-1.283699989E0
1.394628504E1,1.042699933E0,1.962999940E0,-5.935999751E-1
1.396613817E1,3.819999993E-1,2.012300014E0,-2.414999902E-1
1.398598973E1,-6.893999577E-1,2.582599878E0,-2.054999918E-1
1.400584286E1,-1.327999949E0,3.877099991E0,-6.599000096E-1
1.402569598E1,-1.366500020E0,6.561699867E0,-1.159199953E0
1.404554911E1,5.196999907E-1,7.633499622E0,-2.135699987E0
1.406540067E1,3.578299999E0,6.374000072E0,-3.548899889E0
1.408526004E1,5.978399754E0,3.320199966E0,-5.360499859E0
1.410510692E1,3.687599897E0,-3.458699942E0,-6.745999813E0
1.412495848E1,2.191200018E0,-9.262999535E0,-6.975399971E0
1.414481161E1,2.990399837E0,-1.089169979E1,-3.185499907E0
1.416467098E1,3.053099871E0,-7.711400032E0,-1.660300016E0
1.418454442E1,3.173999786E-1,-3.367399931E0,-1.441999912E0
1.420436942E1,-1.694099903E0,-4.619299889E0,-1.249499917E0
1.422422254E1,-1.583899975E0,-8.799499512E0,4.842999876E-1
1.424407567E1,-3.172099829E0,-6.969399929E0,5.873899937E0
1.426392723E1,-3.469399929E0,7.052999735E-1,9.308199883E0
1.428378036E1,-1.526199937E0,6.696199894E0,4.641999722E0
1.430363348E1,-2.819999866E-2,7.951900005E0,7.026000023E-1
1.432348504E1,-8.029999584E-2,3.937899828E0,-2.374899864E0
1.434333817E1,1.389999986E-1,-1.598199964E0,-3.804499865E0
1.436319129E1,2.310999930E-1,-4.971499920E0,-3.021800041E0
1.438304286E1,8.500999808E-1,-6.495899677E0,-1.614499927E0
1.440289598E1,1.788399935E0,-5.168799877E0,-4.528999925E-1
1.442275536E1,1.588699937E0,-1.878299952E0,6.489999890E-1
1.444260223E1,1.693099976E0,7.504000068E-1,1.873799920E0
1.446245379E1,2.381099939E0,1.372299910E0,2.262799978E0
1.448230692E1,2.435600042E0,1.322700024E0,-6.195999980E-1
1.450216473E1,2.044899940E0,5.936999917E-1,-5.250400066E0
1.452201161E1,8.280999660E-1,-5.315999985E-1,-3.206599951E0
1.454186473E1,-8.828999996E-1,-7.734999657E-1,4.919999838E-2
1.456171786E1,-2.145599842E0,-5.823000073E-1,1.625199914E0
1.458156942E1,-2.482899904E0,-6.706999540E-1,1.762499928E0
1.460142254E1,-2.076099873E0,-2.370999902E-1,3.748999834E-1
1.462127567E1,-1.242100000E0,-1.973999888E-1,-3.736999929E-1
1.464112879E1,-8.718000054E-1,-4.291999936E-1,-1.754999906E-1
1.466098661E1,-5.151000023E-1,-3.176999986E-1,1.648000032E-1
1.468083348E1,5.460000038E-1,-3.777000010E-1,-1.616899967E0
1.470068661E1,2.213700056E0,-8.820999861E-1,-2.822799921E0
1.472053817E1,2.535899878E0,-1.587499976E0,3.870999813E-1
1.474039129E1,1.947699904E0,-1.692299962E0,1.729200006E0
1.476024442E1,3.273999989E-1,-3.005199909E0,-1.362499952E0
1.478009754E1,5.041999817E-1,-5.314599991E0,-1.661000013E0
1.479994911E1,1.124599934E0,-6.346799850E0,-1.784999967E-1
1.481980067E1,1.449699998E0,-5.784399986E0,1.023499966E0
1.483965379E1,-1.419999897E-1,-4.214200020E0,2.113899946E0
1.485950692E1,-2.198099852E0,-2.997499943E0,3.068599939E0
1.487936004E1,-3.406399965E0,-2.693099976E0,3.630100012E0
1.489921161E1,-4.225599766E0,-3.761699915E0,3.027299881E0
1.491906473E1,-3.701299906E0,-5.116600037E0,2.037999868E0
1.493891786E1,-4.639400005E0,-4.388299942E0,-1.220000029E0
1.495876942E1,-2.489500046E0,-3.166899920E0,-3.286000013E0
1.497862254E1,4.579999745E-1,-1.545099974E0,-8.983999491E-1
1.499847567E1,2.333099842E0,2.134999931E-1,2.089599848E0
1.501832879E1,2.945400000E0,1.750800014E0,3.230799913E0
1.503818036E1,2.900899887E0,2.244999886E0,1.750299931E0
1.505803348E1,2.133399963E0,1.681599975E0,-2.065299988E0
1.507788661E1,2.890000045E-1,1.448499918E0,-2.120100021E0
1.509773817E1,-6.042999625E-1,2.548199892E0,-1.145799994E0
1.511759754E1,-1.307299972E0,4.126100063E0,-2.369999886E-1
1.513744286E1,-1.753299952E0,5.126699924E0,-2.554000020E-1
1.515729598E1,-1.212099910E0,5.643799782E0,-1.448300004E0
1.517717411E1,5.749999732E-2,5.692999840E0,-2.775300026E0
1.519700692E1,2.131500006E0,4.602999687E0,-4.481599808E0
1.521685379E1,4.610499859E0,2.142799854E0,-8.646499634E0
1.523670692E1,3.871099949E0,-3.938499928E0,-9.452899933E0
1.525656004E1,2.344699860E0,-9.184199333E0,-7.657099724E0
1.527641161E1,2.129299879E0,-1.111829948E1,-3.820699930E0
1.529626629E1,1.160699964E0,-8.941399574E0,-6.525999904E-1
1.531611786E1,-1.697999984E-1,-2.992300034E0,-5.600999594E-1
1.533597098E1,-5.439999700E-2,6.659999490E-2,-6.058999896E-1
1.535582254E1,1.554499984E0,-2.145400047E0,8.251899719E0
1.537567567E1,-2.012500048E0,-5.669199944E0,4.979099751E0
1.539552879E1,-5.483999729E0,-5.899799824E0,2.392999887E0
1.541538036E1,-3.735299826E0,1.049099922E0,3.763499975E0
1.543523348E1,-1.933599949E0,4.499599934E0,1.701299906E0
1.545508661E1,-1.286800027E0,3.154199839E0,3.123999834E-1
1.547493817E1,1.620000042E-2,-5.238999724E-1,-1.148599982E0
1.549479129E1,9.174999595E-1,-3.357999802E0,-2.044699907E0
1.551464442E1,1.858500004E0,-4.119699955E0,-1.202999949E0
1.553449754E1,2.203899860E0,-2.602900028E0,3.780999780E-1
1.555434911E1,1.607399940E0,-5.173999667E-1,1.741199970E0
1.557420223E1,1.603099942E0,6.714999676E-1,1.112999916E0
1.559405536E1,1.861199975E0,8.912000060E-1,-3.452999890E-1
1.561391317E1,1.776999950E0,1.586599946E0,-9.142399788E0
1.563376004E1,1.879499912E0,-1.264999956E-1,-3.701399803E0
1.565361786E1,3.871999979E-1,-1.333299994E0,8.044999838E-1
1.567346629E1,-1.185500026E0,-1.274199963E0,2.883800030E0
1.569331786E1,-1.848599911E0,-6.887999773E-1,3.177199841E0
1.571317098E1,-1.548799992E0,2.085999995E-1,1.074999928E0
1.573302254E1,-8.513000011E-1,2.787999809E-1,4.141999781E-1
1.575287567E1,7.660000026E-2,-2.850999832E-1,6.528999805E-1
1.577272879E1,1.773999929E-1,-8.463000059E-1,1.161899924E0
1.579258192E1,-1.979999989E-1,-1.153800011E0,8.404999971E-1
1.581243348E1,-1.462899923E0,-7.253999710E-1,-4.219900131E0
1.583228661E1,-1.918099999E0,-5.094000101E-1,-7.293399811E0
1.585213973E1,6.049999595E-1,-1.513899922E0,8.319999576E-1
1.587199129E1,3.359499931E0,-3.464599848E0,3.552799940E0
1.589184442E1,4.581099987E0,-5.851599693E0,1.363399982E0
1.591169754E1,4.043499947E0,-7.139799595E0,-6.529999971E-1
1.593155067E1,9.818999767E-1,-5.719299793E0,1.055999994E-1
1.595140223E1,-1.377099991E0,-3.360299826E0,7.495999932E-1
1.597125536E1,-3.409199953E0,-2.128399849E0,2.518499851E0
1.599110692E1,-4.782099724E0,-2.313799858E0,3.416699886E0
1.601096004E1,-4.476099968E0,-3.748799801E0,3.059099913E0
1.603081317E1,-4.313499928E0,-3.783299923E0,2.501399994E0
1.605066629E1,-5.463799953E0,-2.375399828E0,-2.012599945E0
1.607051786E1,-1.956799984E0,-1.636199951E0,-2.591500044E0
1.609037098E1,1.620099902E0,-6.055999994E-1,-2.788999975E-1
1.611022254E1,3.896799803E0,7.400000095E-1,1.501699924E0
1.613007567E1,5.598599911E0,1.354799986E0,2.185999870E0
1.614993348E1,4.383800030E0,7.717999816E-1,-8.748999834E-1
1.616980536E1,7.119999826E-2,-2.502000034E-1,-1.992399931E0
1.618963348E1,-1.538100004E0,4.921999872E-1,-9.714999795E-1
1.620948661E1,-2.171399832E0,2.157099962E0,-4.152999818E-1
1.622933973E1,-2.073999882E0,3.793900013E0,9.659999609E-2
1.624919129E1,-1.325500011E0,5.067100048E0,-1.534999907E-1
1.626904442E1,-6.423999667E-1,5.591399670E0,-6.653999686E-1
1.628889754E1,1.000499964E0,5.479700089E0,-1.011299968E0
1.630874911E1,2.727499962E0,4.287300110E0,-1.472399950E0
1.632860223E1,4.598299980E0,3.046499968E0,-2.131199837E0
1.634845536E1,4.755399704E0,9.411999583E-1,-4.367000103E0
1.636830692E1,3.983399868E0,-3.965299845E0,-7.510099888E0
1.638816004E1,3.932899952E0,-9.867199898E0,-9.601999283E0
1.640801317E1,3.934299946E0,-1.120949936E1,-4.063699722E0
1.642786473E1,1.766600013E0,-8.025799751E0,-7.215999961E-1
1.644772411E1,-1.161100030E0,-4.753799915E0,-4.774999917E-1
1.646757098E1,-2.304100037E0,-6.231299877E0,1.128099918E0
1.648742254E1,-1.548399925E0,-8.614099503E0,1.555499911E0
1.650727567E1,-2.703199863E0,-5.591899872E0,5.273399830E0
1.652712879E1,-2.853399992E0,3.263899803E0,8.579899788E0
1.654698192E1,-1.012199998E0,8.000000000E0,3.834899902E0
1.656683348E1,-7.140000165E-2,8.527099609E0,1.099999994E-2
1.658668661E1,-3.306999803E-1,3.913599968E0,-2.851899862E0
1.660653973E1,-3.021999896E-1,-2.637500048E0,-4.144099712E0
1.662639129E1,-5.460000038E-2,-6.284699917E0,-3.158999920E0
1.664625067E1,1.687500000E0,-7.434599876E0,-2.034499884E0
1.666609754E1,2.428499937E0,-4.843699932E0,-5.027999878E-1
1.668595067E1,1.824099898E0,-1.453099966E0,9.808999896E-1
1.670580223E1,1.623600006E0,6.129999757E-1,1.467499971E0
1.672565536E1,2.155099869E0,7.584999800E-1,1.261299968E0
1.674550848E1,2.465699911E0,1.335799932E0,-3.698699951E0
1.676536004E1,2.383199930E0,6.251999736E-1,-5.674299717E0
1.678521317E1,1.368199944E0,-9.386000037E-1,-1.618600011E0
1.680506629E1,-9.872999787E-1,-1.246500015E0,1.714399934E0
1.682491786E1,-2.340600014E0,-6.035999656E-1,3.193599939E0
1.684477098E1,-2.596999884E0,3.208999932E-1,2.420500040E0
1.686462879E1,-1.873399973E0,6.924999952E-1,7.889999747E-1
1.688447567E1,-1.048699975E0,1.649999991E-2,2.799999900E-2
1.690432879E1,-2.610000074E-1,-7.281999588E-1,4.670999944E-1
1.692418192E1,2.250999957E-1,-1.784899950E0,1.850999892E-1
1.694403504E1,-1.144999936E-1,-1.051100016E0,-6.245499611E0
1.696388661E1,3.633999825E-1,-7.821999788E-1,-3.554499865E0
1.698373973E1,1.319499969E0,-1.337000012E0,2.628299952E0
1.700359286E1,1.881999969E0,-2.401299953E0,3.236899853E0
1.702344442E1,1.931099892E0,-4.324699879E0,-2.799999900E-2
1.704329754E1,1.990899920E0,-5.926399708E0,-1.523699999E0
1.706315067E1,6.872000098E-1,-6.080599785E0,-6.550999880E-1
1.708300379E1,-4.684999883E-1,-4.388199806E0,6.301000118E-1
1.710285536E1,-2.072299957E0,-2.307899952E0,1.692799926E0
1.712270848E1,-2.896600008E0,-1.123499990E0,2.960999966E0
1.714256629E1,-3.618700027E0,-1.354399920E0,3.003099918E0
1.716243817E1,-3.007699966E0,-3.263700008E0,2.406299829E0
1.718226629E1,-4.020100117E0,-4.252399921E0,1.998099923E0
1.720211942E1,-4.163599968E0,-3.609699965E0,-1.069199920E0
1.722197098E1,-1.198699951E0,-2.737900019E0,-3.601999998E0
1.724182411E1,7.656999826E-1,-1.107900023E0,-7.648999691E-1
1.726167723E1,2.634699821E0,4.111000001E-1,1.718400002E0
1.728153036E1,3.143499851E0,1.572699904E0,2.698699951E0
1.730138192E1,2.715999842E0,1.968999982E0,6.437999606E-1
1.732123504E1,1.484099984E0,1.307500005E0,-1.799099922E0
1.734108817E1,8.599999547E-1,5.394999981E-1,-1.244300008E0
1.736093973E1,1.429999992E-2,1.276099920E0,-7.983999848E-1
1.738079286E1,-1.238499999E0,3.681399822E0,-6.994999647E-1
1.740064598E1,-1.415799975E0,5.056099892E0,-3.650999963E-1
1.742049911E1,-1.175499916E0,5.862299919E0,-7.657999992E-1
1.744035067E1,5.059999973E-2,6.525199890E0,-1.460799932E0
1.746020379E1,1.946299911E0,5.823899746E0,-2.799799919E0
1.748005536E1,3.247999907E0,3.333899975E0,-5.064199924E0
1.749991004E1,2.859699965E0,-2.068199873E0,-7.506299973E0
1.751976161E1,2.733500004E0,-7.499599934E0,-7.585399628E0
1.753961317E1,1.744399905E0,-1.014929962E1,-3.437199831E0
1.755946629E1,-9.487999678E-1,-8.869599342E0,-1.513700008E0
1.757931786E1,-3.769699812E0,-5.506000042E0,-1.026999950E0
1.759917098E1,-3.498999834E0,-6.071300030E0,2.311100006E0
1.761902411E1,-1.735099912E0,-4.433199883E0,6.612899780E0
1.763888192E1,-1.703599930E0,4.916999936E-1,6.877299786E0
1.765872879E1,-1.334999949E-1,5.458199978E0,4.730499744E0
1.767858348E1,8.524000049E-1,6.041699886E0,4.978999794E-1
1.769843504E1,2.902999818E-1,3.235599995E0,-2.033499956E0
1.771828817E1,-9.690000117E-2,-1.010999918E0,-2.906199932E0
1.773813973E1,-2.626999915E-1,-4.608599663E0,-2.166399956E0
1.775799286E1,1.339100003E0,-6.508699894E0,-3.632999957E-1
1.777784442E1,2.461199999E0,-4.922499657E0,1.316399932E0
1.779769754E1,1.792799950E0,-1.449999928E0,2.151700020E0
1.781755067E1,1.434999943E0,1.007499933E0,1.303699970E0
1.783740379E1,9.122999907E-1,2.051699877E0,-2.041999996E-1
1.785725536E1,1.206000000E-1,2.502099991E0,-6.873799801E0
1.787710848E1,1.068999991E-1,6.347999573E-1,-5.050999641E0
1.789696161E1,4.106999934E-1,-9.948999882E-1,-4.365999997E-1
1.791681317E1,-1.753000021E-1,-1.369199991E0,2.325599909E0
1.793666629E1,-5.236999989E-1,-4.254999757E-1,3.157099962E0
1.795651942E1,-6.250000000E-1,4.082999825E-1,1.771199942E0
1.797637098E1,-7.211999893E-1,2.619999945E-1,4.811999798E-1
1.799622411E1,-5.888000131E-1,-2.460999936E-1,-7.389999926E-2
1.801607723E1,-4.350000024E-1,-4.893999994E-1,-2.496999949E-1
1.803593036E1,4.429999739E-2,-5.507999659E-1,3.559999913E-2
1.805578192E1,1.806999892E-1,-5.550999641E-1,4.689999819E-1
1.807563504E1,-2.391999960E-1,-6.523000002E-1,8.399999700E-3
1.809548817E1,-4.594999850E-1,-7.422999740E-1,-3.385900021E0
1.811533973E1,-1.979999989E-2,-7.489999533E-1,-4.647900105E0
1.813519911E1,7.691999674E-1,-1.066100001E0,9.524999857E-1
1.815507098E1,1.058699965E0,-2.098099947E0,2.400199890E0
1.817489911E1,5.418999791E-1,-3.935400009E0,-1.277400017E0
1.819475067E1,1.553699970E0,-5.385600090E0,-1.781599998E0
1.821460379E1,2.649299860E0,-5.249700069E0,-3.860999942E-1
1.823445692E1,2.887399912E0,-4.482599735E0,1.005399942E0
1.825430848E1,8.348000050E-1,-2.875999928E0,2.017899990E0
1.827416161E1,-1.781299949E0,-2.011899948E0,2.629899979E0
1.829401473E1,-3.193799973E0,-2.155099869E0,3.838599920E0
1.831386629E1,-4.967999935E0,-4.057300091E0,3.003799915E0
1.833371942E1,-3.983799934E0,-5.288300037E0,1.695799947E0
1.835357254E1,-4.064899921E0,-4.301700115E0,-1.595600009E0
1.837342567E1,-2.195699930E0,-2.284899950E0,-3.213999987E0
1.839327723E1,1.881999969E-1,-5.072999597E-1,-9.695999622E-1
1.841313036E1,2.191599846E0,1.077199936E0,3.072099924E0
1.843298348E1,3.109899998E0,1.943300009E0,2.792599916E0
1.845283504E1,2.811899900E0,1.950599909E0,-9.559999704E-1
1.847268817E1,1.550699949E0,1.359699965E0,-1.817799926E0
1.849254129E1,4.666000009E-1,1.220299959E0,-1.478199959E0
1.851239442E1,-1.216499925E0,2.996699810E0,-9.201999903E-1
1.853224598E1,-1.533899903E0,4.621200085E0,5.471999645E-1
1.855209911E1,-1.398399949E0,5.705899715E0,-4.479999840E-1
1.857195067E1,-3.193999827E-1,6.312399864E0,-1.490999937E0
1.859180379E1,1.469699979E0,5.898200035E0,-2.391000032E0
1.861165692E1,3.400399923E0,4.023799896E0,-3.832599878E0
1.863151004E1,4.219099998E0,6.941999793E-1,-6.035399914E0
1.865136161E1,2.784299850E0,-5.867399693E0,-9.885099411E0
1.867121473E1,3.852699995E0,-1.067159939E1,-7.970499992E0
1.869106629E1,4.746500015E0,-1.061679935E1,-1.960399985E0
1.871091942E1,2.135900021E0,-6.278399944E0,2.951000035E-1
1.873077254E1,3.929999843E-2,-9.063999653E-1,5.898999572E-1
1.875062567E1,-2.283999920E-1,-4.777999818E-1,1.626699924E0
1.877047723E1,-1.732499957E0,-2.509099960E0,5.601899624E0
1.879033036E1,-4.260600090E0,-5.424900055E0,1.132599950E0
1.881018348E1,-4.758100033E0,-4.549799919E0,2.998999834E0
1.883003504E1,-2.791800022E0,8.427999616E-1,3.724499941E0
1.884988817E1,-6.291999817E-1,3.772300005E0,1.592000008E0
1.886974129E1,9.591999650E-1,4.359200001E0,6.681999564E-1
1.888959286E1,1.150499940E0,2.177099943E0,-1.062699914E0
1.890944598E1,8.514999747E-1,-9.739999771E-1,-2.215100050E0
1.892929754E1,7.561999559E-1,-2.531999826E0,-1.459699988E0
1.894915223E1,1.035200000E0,-2.260999918E0,-6.712999940E-1
1.896900379E1,1.147899985E0,-8.966999650E-1,2.698000073E-1
1.898885692E1,1.507200003E0,5.297999978E-1,9.412999749E-1
1.900870848E1,1.983699918E0,6.117999554E-1,8.643999696E-1
1.902856161E1,1.939899921E0,1.732999980E-1,-2.546700001E0
1.904841473E1,1.346799970E0,-6.495000124E-1,-7.462499619E0
1.906826629E1,6.207999587E-1,-9.807999730E-1,-3.067499876E0
1.908812567E1,-5.636999607E-1,-8.290999532E-1,1.985999942E0
1.910797254E1,-1.042500019E0,-1.651999950E-1,4.149899960E0
1.912783036E1,-1.033499956E0,1.823999882E-1,3.737499952E0
1.914770223E1,-7.058999538E-1,3.919999897E-1,1.307999969E0
1.916753036E1,-4.591999948E-1,3.202999830E-1,-6.219999865E-2
1.918738348E1,-3.497999907E-1,1.673000008E-1,-3.375999928E-1
1.920723661E1,-3.438999951E-1,-4.693999887E-1,2.469999902E-2
1.922708817E1,-6.764999628E-1,-8.947999477E-1,7.660000026E-2
1.924694129E1,-1.153999925E0,-7.849999666E-1,-4.692199707E0
1.926679442E1,-5.735999942E-1,-6.879999638E-1,-4.886499882E0
1.928664598E1,1.311900020E0,-1.327000022E0,1.779699922E0
1.930649911E1,2.640699863E0,-2.453599930E0,3.867999792E0
1.932635223E1,2.980199814E0,-3.756399870E0,1.371799946E0
1.934620379E1,2.694799900E0,-5.340600014E0,-2.208099842E0
1.936605692E1,1.515999913E0,-6.235099792E0,-1.848199964E0
1.938591004E1,-6.929999590E-2,-5.263700008E0,-7.954999804E-1
1.940576161E1,-1.748799920E0,-2.857699871E0,6.149999797E-2
1.942561473E1,-2.947099924E0,-1.226099968E0,1.673200011E0
1.944546786E1,-2.488399982E0,-6.480000019E-1,3.249199867E0
1.946531942E1,-2.702100039E0,-1.714699984E0,3.752199888E0
1.948517254E1,-2.923099995E0,-3.386299849E0,3.036700010E0
1.950502567E1,-3.052799940E0,-3.852999926E0,1.128700018E0
1.952487723E1,-1.384699941E0,-3.730199814E0,-3.682999849E0
1.954473036E1,3.788999915E-1,-2.284800053E0,-2.554100037E0
1.956458348E1,1.901299953E0,-6.766999960E-1,4.280999899E-1
1.958443661E1,2.312199831E0,9.560999870E-1,2.516799927E0
1.960428817E1,1.479900002E0,1.929299951E0,1.727999926E0
1.962414598E1,9.980999827E-1,1.627200007E0,-1.193400025E0
1.964399442E1,4.000999928E-1,1.163299918E0,-1.635699987E0
1.966384598E1,1.030000001E-1,1.046800017E0,-7.712000012E-1
1.968369911E1,-8.588999510E-1,2.660500050E0,-1.658999920E-1
1.970355223E1,-1.209800005E0,4.559499741E0,1.891999990E-1
1.972340536E1,-8.093999624E-1,5.738999844E0,-9.021999836E-1
1.974325692E1,-1.554999948E-1,6.784100056E0,-1.026299953E0
1.976311004E1,2.105799913E0,5.197599888E0,-2.119499922E0
1.978296317E1,3.986499786E0,2.878700018E0,-3.445099831E0
1.980281473E1,4.184400082E0,-8.263999820E-1,-6.244999886E0
1.982266786E1,4.211599827E0,-6.320799828E0,-9.530300140E0
1.984252098E1,3.886299849E0,-1.043669987E1,-7.545599937E0
1.986237254E1,4.494999945E-1,-1.049370003E1,-1.362699986E0
1.988222567E1,-2.265100002E0,-6.791499615E0,3.562999964E-1
1.990207879E1,-3.362799883E0,-2.032199860E0,3.574999869E-1
1.992193661E1,-2.745699883E0,-7.675999999E-1,-7.135999799E-1
1.994178348E1,-4.253000021E-1,-2.532399893E0,6.931399822E0
1.996163661E1,-1.436299920E0,-4.179100037E0,4.243999958E0
1.998148817E1,-1.669899940E0,-4.463999867E-1,4.453700066E0
2.000134129E1,-1.948999912E-1,4.012199879E0,1.898999929E0
2.002119442E1,2.382999957E-1,5.160299778E0,-7.687000036E-1
2.004104598E1,6.079999730E-2,3.689899921E0,-1.221799970E0
2.006089911E1,3.113999963E-1,-1.732999980E-1,-2.254899979E0
2.008075223E1,5.615999699E-1,-3.463199854E0,-1.746199965E0
2.010060536E1,1.670399904E0,-4.888000011E0,-4.889999926E-1
2.012046317E1,2.471699953E0,-3.788699865E0,1.182899952E0
2.014033348E1,2.312299967E0,-1.170499921E0,1.896099925E0
2.016016317E1,2.176399946E0,9.551999569E-1,1.527300000E0
2.018001473E1,1.032899976E0,2.190599918E0,-4.436100006E0
2.019987411E1,-1.013999954E-1,1.054899931E0,-5.603199959E0
2.021971942E1,-1.538999975E-1,-6.237999797E-1,-1.429899931E0
2.023957254E1,-8.676999807E-1,-4.271999896E-1,1.976799965E0
2.025942567E1,-1.220700026E0,1.621999890E-1,3.453099966E0
2.027927723E1,-9.753999710E-1,5.791999698E-1,2.391399860E0
2.029913036E1,-6.614999771E-1,8.279999495E-1,6.862999797E-1
2.031898348E1,-7.278999686E-1,6.486999989E-1,-5.188999772E-1
2.033883661E1,-4.820999801E-1,1.525999904E-1,-8.953999877E-1
2.035868817E1,-2.087000012E-1,-3.675999939E-1,-8.271999955E-1
2.037854129E1,-2.897999883E-1,-5.618000031E-1,-8.703999519E-1
2.039839442E1,-3.570000082E-2,-7.843999863E-1,-4.525700092E0
2.041824754E1,4.583999813E-1,-1.071499944E0,-2.355200052E0
2.043809911E1,1.975399971E0,-9.092999697E-1,1.875399947E0
2.045795223E1,3.589699984E0,-2.301100016E0,2.111199856E0
2.047780536E1,4.212999821E0,-5.449800014E0,1.070500016E0
2.049765692E1,3.699699879E0,-8.064199448E0,-2.180999964E-1
2.051751004E1,8.761000037E-1,-7.992899895E0,-3.898999989E-1
2.053736317E1,-2.579299927E0,-5.306699753E0,-3.889999986E-1
2.055721473E1,-3.587199926E0,-2.849699974E0,1.199999928E0
2.057706942E1,-3.882499933E0,-1.396699905E0,3.179800034E0
2.059692098E1,-3.152199984E0,-1.832099915E0,3.332199812E0
2.061677879E1,-3.402499914E0,-3.207999945E0,3.085899830E0
2.063662567E1,-5.046299934E0,-2.982100010E0,2.449499846E0
2.065647879E1,-3.511099815E0,-2.503599882E0,-8.513999581E-1
2.067633192E1,3.769999743E-2,-2.344699860E0,-2.591899872E0
2.069618348E1,1.755399942E0,-1.496199965E0,-1.013199925E0
2.071603661E1,3.079900026E0,1.081999987E-1,1.325599909E0
2.073588973E1,3.733099937E0,1.223899961E0,1.658899903E0
2.075574129E1,2.765799999E0,1.152999997E0,-6.866999865E-1
2.077559442E1,7.622999549E-1,3.075000048E-1,-1.401399970E0
2.079544754E1,-8.093999624E-1,7.005999684E-1,-9.738000035E-1
2.081529911E1,-1.792899966E0,2.148399830E0,-5.597999692E-1
2.083515223E1,-1.815999985E0,3.501799822E0,-9.519999474E-2
2.085500536E1,-1.106199980E0,4.677299976E0,-1.981000006E-1
2.087485692E1,-3.247999847E-1,5.557899952E0,-4.970999956E-1
2.089471004E1,1.127699971E0,5.543499947E0,-1.286499977E0
2.091456317E1,3.046000004E0,4.289700031E0,-1.788800001E0
2.093441629E1,4.601999760E0,2.916100025E0,-3.035799980E0
2.095426786E1,4.570399761E0,4.328999817E-1,-5.846699715E0
2.097412098E1,2.441799879E0,-3.984899998E0,-7.231299877E0
2.099397411E1,9.765999913E-1,-7.897899628E0,-5.931200027E0
2.101382567E1,-7.293999791E-1,-9.938799858E0,-4.086599827E0
2.103367879E1,-3.380399942E0,-9.224699974E0,-2.356899977E0
2.105353192E1,-6.149099827E0,-9.531799316E0,-1.373999953E0
2.107338504E1,-1.938499928E0,-1.249409962E1,-4.856599808E0
2.109323661E1,4.037399769E0,-2.598899841E0,1.186859989E1
2.111309442E1,1.860700011E0,6.701099873E0,1.294469929E1
2.113296629E1,3.540000021E-1,1.012539959E1,4.663199902E0
2.115279442E1,-1.674799919E0,7.976799965E0,-2.276700020E0
2.117264754E1,-3.653899908E0,-6.531999707E-1,-5.479199886E0
2.119250067E1,-2.812500000E0,-6.806999683E0,-4.369899750E0
2.121235223E1,3.774999976E-1,-8.825900078E0,-1.821099997E0
2.123220536E1,4.042399883E0,-8.309399605E0,-1.096999943E-1
2.125205848E1,3.948399782E0,-4.321300030E0,3.967999816E-1
2.127191161E1,1.968699932E0,-8.786999583E-1,1.126500010E0
2.129176317E1,8.254999518E-1,1.832799911E0,-3.525099993E0
2.131162098E1,-3.508999944E-1,1.855699897E0,-3.467599869E0
2.133146786E1,-2.992999852E-1,8.549999446E-2,-6.542999744E-1
2.135132098E1,5.779999867E-2,-1.196999997E-1,1.493499994E0
2.137117411E1,-2.786000073E-1,6.306999922E-1,2.564399958E0
2.139102567E1,-2.992999852E-1,1.261500001E0,2.017199993E0
2.141087879E1,-7.832999825E-1,7.714999914E-1,1.130100012E0
2.143073192E1,-8.876999617E-1,1.534999907E-1,1.635999978E-1
2.145058973E1,-7.245000005E-1,-1.397999972E-1,-2.053999901E-1
2.147043661E1,-6.204999685E-1,-4.139999747E-1,-5.647999644E-1
2.149028973E1,-4.292999804E-1,-4.985999763E-1,-6.225999594E-1
2.151014129E1,-4.834999740E-1,-5.407999754E-1,-5.268999934E-1
2.152999442E1,-8.817999959E-1,-8.831999898E-1,-1.643099904E0
2.154984754E1,-1.058699965E0,-1.012599945E0,-6.443399906E0
2.156970067E1,1.560999900E-1,-1.063499928E0,-2.939399958E0
2.158955223E1,1.872799993E0,-1.187099934E0,1.677799940E0
2.160941161E1,2.577600002E0,-2.159600019E0,2.688400030E0
2.162925692E1,2.542799950E0,-4.166199684E0,-2.354999930E-1
2.164911004E1,2.180999994E0,-6.002899647E0,-1.643599987E0
2.166896317E1,2.296099901E0,-6.117799759E0,2.280999869E-1
2.168881629E1,1.208400011E0,-5.762899876E0,2.035799980E0
2.170866786E1,-9.617999792E-1,-4.428999901E0,3.619599819E0
2.172852098E1,-3.236199856E0,-3.547599792E0,3.892899990E0
2.174837411E1,-4.212199688E0,-3.551100016E0,3.241099834E0
2.176822567E1,-3.355599880E0,-3.395599842E0,1.989699960E0
2.178807879E1,-3.030099869E0,-2.732800007E0,4.517999887E-1
2.180793192E1,-2.507999897E0,-1.615999937E0,-1.013399959E0
2.182778504E1,-3.749999776E-2,-9.247999787E-1,-1.353399992E0
2.184763661E1,1.845199943E0,4.209999740E-2,-1.513999999E-1
2.186748973E1,3.513000011E0,1.073899984E0,1.102999926E0
2.188734286E1,2.964099884E0,1.480599999E0,-5.862999558E-1
2.190719442E1,1.036800027E0,1.706999898E0,-1.016000032E0
2.192704754E1,8.439999819E-2,1.464299917E0,-1.072999984E-1
2.194690067E1,3.876999915E-1,1.037199974E0,2.532999814E-1
2.196675223E1,-3.589999974E-1,9.315999746E-1,-2.008000016E-1
2.198660536E1,-1.615799904E0,2.163399935E0,-9.001999497E-1
2.200645848E1,-1.875899911E0,3.654799938E0,-1.325699925E0
2.202631161E1,-1.594299912E0,4.930799961E0,-1.576099992E0
2.204616317E1,-6.833999753E-1,5.262300014E0,-1.772799969E0
2.206602254E1,4.226999879E-1,4.159299850E0,-2.608799934E0
2.208586942E1,2.237999916E0,2.289999962E0,-2.798199892E0
2.210572098E1,3.491699934E0,-3.425000012E-1,-2.064300060E0
2.212559911E1,3.906399965E0,-2.673199892E0,-2.697399855E0
2.214542723E1,3.496500015E0,-3.998699903E0,-3.288699865E0
2.216527879E1,3.633999825E0,-5.371500015E0,-3.674099922E0
2.218513192E1,2.243700027E0,-6.739899635E0,-2.131000042E0
2.220498504E1,-1.080899954E0,-9.954899788E0,-9.629999995E-1
2.222483661E1,-2.622999907E0,-1.460759926E1,3.939999938E-1
2.224468973E1,5.819999576E-1,-1.377709961E1,6.225999594E-1
2.226454286E1,-3.101999998E0,-5.559999868E-2,1.131979942E1
2.228439598E1,-1.287299991E0,8.002399445E0,7.467700005E0
2.230424754E1,-8.079999685E-2,1.002269936E1,1.528699994E0
2.232410067E1,-3.823999763E-1,8.000699997E0,-2.386999846E0
2.234395379E1,-5.066999793E-1,5.791000128E-1,-5.329099655E0
2.236380692E1,-1.554600000E0,-5.306099892E0,-4.457699776E0
2.238365848E1,-9.011999965E-1,-7.162999630E0,-2.356999874E0
2.240351161E1,1.136600018E0,-5.514800072E0,-1.676599979E0
2.242336473E1,1.651899934E0,-2.407799959E0,-1.388299942E0
2.244321629E1,1.327099919E0,-1.469999999E-1,-8.994999528E-1
2.246306942E1,7.332999706E-1,5.102999806E-1,-2.967000008E-1
2.248292254E1,8.101999760E-1,1.071999967E-1,-8.100000210E-3
2.250277567E1,1.347800016E0,1.627999991E-1,4.223999977E-1
2.252262723E1,2.949399948E0,1.702999920E-1,8.163999915E-1
2.254248036E1,4.327899933E0,-5.400999784E-1,-4.736999869E-1
2.256233348E1,2.208199978E0,-7.486999631E-1,-9.294999838E-1
2.258218504E1,-3.856000006E-1,1.754299998E0,-4.654999971E-1
2.260204286E1,-2.003599882E0,1.960000023E-2,3.025999963E-1
2.262189129E1,-2.686800003E0,-1.571099997E0,1.282599926E0
2.264174286E1,-2.384199858E0,-1.332399964E0,1.630399942E0
2.266159598E1,-1.656999946E0,-5.953999758E-1,1.966399908E0
2.268144911E1,-1.336399913E0,-8.599999547E-2,3.781999946E-1
2.270130067E1,-1.720199943E0,-4.350000024E-1,-1.136399984E0
2.272115379E1,-1.905999899E0,-1.284099936E0,-1.015180016E1
2.274100692E1,-8.212999701E-1,-1.519799948E0,-6.878099918E0
2.276086473E1,1.867100000E0,-1.246599913E0,3.484799862E0
2.278071161E1,2.119199991E0,-1.782400012E0,5.302299976E0
2.280056473E1,1.491799951E0,-5.179399967E0,1.370000005E0
2.282041629E1,2.191999912E0,-7.089499950E0,-1.727899909E0
2.284026942E1,1.462999940E0,-6.475199699E0,2.291999906E-1
2.286012254E1,-9.629999846E-2,-4.789899826E0,2.792799950E0
2.287997411E1,-2.197399855E0,-4.486700058E0,3.740799904E0
2.289982879E1,-3.350299835E0,-4.342000008E0,3.289499998E0
2.291967879E1,-3.182699919E0,-4.426199913E0,2.366499901E0
2.293953348E1,-2.540799856E0,-3.639499903E0,1.627399921E0
2.295938504E1,-2.450500011E0,-1.572499990E0,3.876000047E-1
2.297923817E1,-1.475199938E0,-2.648999989E-1,-5.505999923E-1
2.299908973E1,9.903999567E-1,8.750999570E-1,-1.082999945E0
2.301894442E1,2.163199902E0,4.563999772E-1,7.629999518E-2
2.303879598E1,2.711499929E0,6.554999948E-1,7.523999810E-1
2.305864911E1,2.290099859E0,1.257900000E0,-3.929999769E-1
2.307850067E1,8.260999918E-1,2.178099871E0,-1.684399962E0
2.309836004E1,-4.361999929E-1,2.901599884E0,-1.024899960E0
2.311823036E1,-2.825999856E-1,2.924599886E0,-6.087999940E-1
2.313805848E1,-6.916999817E-1,2.480099916E0,-3.534999788E-1
2.315791161E1,-4.806999862E-1,3.039499998E0,-5.385999680E-1
2.317776473E1,-6.428999901E-1,3.384699821E0,-1.212599993E0
2.319761629E1,-2.543999851E-1,3.586399794E0,-1.201399922E0
2.321746942E1,5.099999718E-3,3.005599976E0,-1.248099923E0
2.323732254E1,4.816999733E-1,2.242399931E0,-2.106600046E0
2.325717411E1,1.039799929E0,2.284899950E0,-2.889600039E0
2.327702723E1,1.279899955E0,1.580199957E0,-2.887699842E0
2.329688036E1,2.704099894E0,-2.945199966E0,-6.713999748E0
2.331673348E1,1.065500021E0,-4.661399841E0,-6.056499958E0
2.333658504E1,1.707799911E0,-5.516499996E0,-2.591199875E0
2.335643817E1,7.985999584E-1,-5.116899967E0,1.424799919E0
2.337628973E1,-1.338199973E0,-6.009699821E0,3.411599874E0
2.339614911E1,-5.044399738E0,-6.688699722E0,4.359699726E0
2.341599598E1,-6.215299606E0,-7.474799633E0,2.063999891E0
2.343584911E1,-7.619999647E-1,-1.804199934E0,7.079999894E-2
2.345570692E1,3.097299814E0,3.211999893E0,-1.385699987E0
2.347555379E1,3.595499992E0,1.552899957E0,6.499999762E-2
2.349540692E1,1.679499984E0,2.083099842E0,3.355199814E0
2.351525848E1,-3.306999803E-1,3.699699879E0,4.989999771E0
2.353511161E1,-1.925399899E0,2.701400042E0,4.049099922E0
2.355496473E1,-1.890999913E0,4.799000025E-1,-5.649999902E-2
2.357481786E1,-5.331000090E-1,-8.226999640E-1,-3.636899948E0
2.359467567E1,1.208699942E0,-2.222199917E0,-4.821000099E0
2.361452254E1,2.534399986E0,-2.585500002E0,-4.730199814E0
2.363437567E1,3.172199965E0,-2.317499876E0,-4.126899719E0
2.365422723E1,1.568799973E0,-1.582899928E0,-4.680699825E0
2.367408036E1,-5.020000041E-2,-1.071099997E0,-3.106199980E0
2.369393192E1,-1.398199916E0,-9.399999864E-3,-2.761999965E-1
2.371378504E1,-1.895399928E0,2.463999987E-1,2.233299971E0
2.373363817E1,-5.047999620E-1,5.595999956E-1,3.417999983E0
2.375349129E1,2.813999951E-1,1.142099977E0,3.697099924E0
2.377334442E1,4.809999764E-1,8.111999631E-1,2.060400009E0
2.379319598E1,6.086999774E-1,7.703999877E-1,1.062999964E-1
2.381304911E1,-2.962000072E-1,1.367200017E0,-1.170099974E0
2.383290067E1,-1.750099897E0,1.321499944E0,-1.817899942E0
2.385275379E1,-2.611999989E0,4.790000021E-1,-1.112399936E0
2.387260692E1,-1.161100030E0,-5.891999602E-1,-2.076999992E-1
2.389246004E1,4.102999866E-1,-1.372099996E0,3.738999963E-1
2.391231161E1,8.078999519E-1,-1.574699998E0,-8.049999923E-2
2.393216473E1,1.252699971E0,-1.639599919E0,-4.571999907E-1
2.395201786E1,1.184199929E0,-2.098299980E0,-1.192600012E0
2.397186942E1,1.061100006E0,-3.109899998E0,-1.975799918E0
2.399172254E1,4.429999888E-1,-4.221199989E0,-2.316200018E0
2.401157567E1,-6.327999830E-1,-5.815000057E0,-1.496500015E0
2.403142723E1,-9.219999611E-2,-5.650700092E0,1.086999997E-1
2.405128036E1,2.032099962E0,-3.702299833E0,1.188599944E0
2.407113192E1,2.800099850E0,-1.345700026E0,1.209699988E0
2.409099129E1,1.984599948E0,-9.151999950E-1,7.366999984E-1
2.411086317E1,-4.675000012E-1,-1.392799973E0,2.102999985E-1
2.413068973E1,-2.740999937E0,-2.039700031E0,3.209999800E-1
2.415054911E1,-4.143700123E0,-1.056299925E0,1.017599940E0
2.417039598E1,-2.794199944E0,3.799999878E-2,1.252599955E0
2.419024911E1,1.116999984E-1,7.871999741E-1,9.145999551E-1
2.421010067E1,1.540899992E0,9.452999830E-1,5.385000110E-1
2.422995379E1,1.984399915E0,2.861999869E-1,7.461000085E-1
2.424980692E1,1.235299945E0,6.606000066E-1,1.832000017E-1
2.426965848E1,9.049999714E-1,1.029999971E0,-1.650699973E0
2.428951161E1,1.499499917E0,9.090999961E-1,-4.106599808E0
2.430936473E1,2.514999807E-1,7.543999553E-1,-2.615999937E0
2.432921786E1,-4.002999961E-1,7.421000004E-1,4.162999988E-1
2.434906942E1,-1.357499957E0,3.104599953E0,1.615000010E0
2.436892254E1,-2.013000011E0,3.753999949E0,1.871699929E0
2.438877567E1,-3.323999941E-1,1.980999947E0,9.626999497E-1
2.440862723E1,1.902000010E-1,1.636899948E0,2.609999850E-2
2.442848036E1,-2.789999917E-2,1.626899958E0,-5.465999842E-1
2.444833348E1,-4.809999838E-2,1.618799925E0,-9.372999668E-1
2.446818504E1,3.294000030E-1,1.255900025E0,-1.594900012E0
2.448803817E1,1.767499924E0,4.432999790E-1,-2.583799839E0
2.450789129E1,3.513499975E0,-6.972000003E-1,-3.967899799E0
2.452774442E1,3.980299950E0,-1.643599987E0,-3.417299986E0
2.454759598E1,3.982800007E0,-3.772499800E0,-1.093699932E0
2.456744911E1,2.948099852E0,-4.353099823E0,-3.941999972E-1
2.458730692E1,5.315999985E-1,-3.656299829E0,-6.489999592E-2
2.460715379E1,-8.032999635E-1,-4.147200108E0,1.049299955E0
2.462700692E1,-1.194199920E0,-4.899899960E0,6.488999724E-1
2.464686004E1,-1.191799998E0,-5.328599930E0,-1.739999950E-1
2.466671161E1,-1.775200009E0,-3.341599941E0,-2.404999882E-1
2.468656473E1,-8.696999550E-1,-1.310199976E0,8.657000065E-1
2.470641786E1,5.582000017E-1,3.640999794E-1,1.209999919E0
2.472627098E1,-5.680999756E-1,2.155299902E0,4.504199982E0
2.474612254E1,-2.291199923E0,2.618299961E0,5.320099831E0
2.476597567E1,-3.575999975E0,2.116799831E0,4.115900040E0
2.478582879E1,-1.998899937E0,6.789000034E-1,-6.428999901E-1
2.480568036E1,5.259999633E-1,-9.449999779E-2,-4.271199703E0
2.482553348E1,2.381299973E0,-5.094999671E-1,-4.551599979E0
2.484539129E1,3.378499985E0,-5.027999878E-1,-3.060799837E0
2.486523817E1,3.576599836E0,-3.968999982E-1,-1.052399993E0
2.488509129E1,3.620899916E0,-6.445999742E-1,-4.289999977E-2
2.490494442E1,3.359299898E0,-1.167999983E0,-1.633000016E0
2.492479754E1,2.727299929E0,-1.419699907E0,-3.158200026E0
2.494464911E1,6.658999920E-1,-9.496999979E-1,-1.757299900E0
2.496450223E1,-1.321299911E0,-9.720000029E-1,9.662999511E-1
2.498435536E1,-2.044499874E0,-5.946999788E-1,2.741099834E0
2.500420692E1,-1.361199975E0,-2.109999955E-2,2.943300009E0
2.502406004E1,-6.525999904E-1,5.564999580E-1,1.776199937E0
2.504391317E1,-9.659000039E-1,1.059100032E0,5.507999659E-1
2.506376629E1,-1.202399969E0,8.111000061E-1,-3.819999993E-1
2.508362254E1,-1.013000011E0,9.999999311E-4,-9.900999665E-1
2.510347098E1,-6.949999928E-1,-6.115999818E-1,-1.183799982E0
2.512332411E1,-8.119999617E-2,-1.154600024E0,-1.291499972E0
2.514317567E1,1.015399933E0,-1.481599927E0,-1.682799935E0
2.516302879E1,2.212599993E0,-1.728099942E0,-1.374400020E0
2.518288036E1,2.766299963E0,-2.935400009E0,-7.073000073E-1
2.520273348E1,1.994599938E0,-5.083099842E0,-4.666999876E-1
2.522258661E1,9.853000045E-1,-6.513299942E0,6.790000200E-2
2.524243973E1,5.586000085E-1,-6.079599857E0,4.447999895E-1
2.526229286E1,1.262199998E0,-3.934599876E0,1.017400026E0
2.528214442E1,2.696399927E0,-1.735700011E0,1.060699940E0
2.530199754E1,2.176800013E0,-6.491999626E-1,6.599000096E-1
2.532184911E1,2.712000012E-1,-7.295999527E-1,1.349999905E-1
2.534170223E1,-2.538699865E0,-9.255999923E-1,-2.847999930E-1
2.536155536E1,-3.801499844E0,-7.250999808E-1,4.611999989E-1
2.538140692E1,-3.191499949E0,-4.937999845E-1,8.982999921E-1
2.540126004E1,-1.432600021E0,6.499999762E-2,9.522999525E-1
2.542111317E1,5.749999732E-2,5.755000114E-1,8.651999831E-1
2.544096473E1,3.007999957E-1,1.532699943E0,3.892999887E-1
2.546081786E1,6.072999835E-1,1.146199942E0,2.148000002E-1
2.548067098E1,1.101799965E0,1.035499930E0,9.383999705E-1
2.550052254E1,1.431800008E0,9.072999954E-1,5.597999692E-1
2.552037567E1,1.689000010E0,9.860999584E-1,-1.040199995E0
2.554023348E1,1.462199926E0,9.262999892E-1,-2.987900019E0
2.556008036E1,1.748499990E0,5.412999988E-1,-6.499799728E0
2.557993348E1,1.021999940E-1,7.173999548E-1,-2.727799892E0
2.559978661E1,-1.559199929E0,4.878999889E-1,3.042999804E-1
2.561963817E1,-1.629899979E0,7.350999713E-1,1.487100005E0
2.563949129E1,-1.328199983E0,1.129799962E0,1.907799959E0
2.565934442E1,-8.743000031E-1,1.845699906E0,1.194599986E0
2.567919754E1,-4.285999835E-1,2.044999838E0,7.657999992E-1
2.569904911E1,-1.368999928E-1,1.798200011E0,-1.526999921E-1
2.571890223E1,5.070999861E-1,1.612100005E0,-1.656999946E0
2.573875536E1,2.008399963E0,5.005999804E-1,-2.821499825E0
2.575860692E1,4.242099762E0,-1.610799909E0,-7.971000075E-1
2.577846004E1,5.953299999E0,-2.594899893E0,1.184199929E0
2.579831317E1,4.463900089E0,-3.050599813E0,1.810999960E-1
2.581816629E1,1.524799943E0,-4.958099842E0,-5.217999816E-1
2.583801786E1,4.681999981E-1,-7.624399662E0,-3.209999800E-1
2.585787098E1,-4.906999767E-1,-7.406899929E0,-7.222999930E-1
2.587772411E1,-2.008499861E0,-4.872499943E0,-5.273000002E-1
2.589757567E1,-1.684099913E0,-2.254099846E0,-3.330000043E-1
2.591742879E1,-3.628000021E-1,-5.764999986E-1,1.031999961E-1
2.593728192E1,-1.393100023E0,9.196999669E-1,2.467099905E0
2.595713348E1,-2.495499849E0,1.778199911E0,4.478699684E0
2.597698661E1,-2.787899971E0,2.705299854E0,3.812099934E0
2.599683973E1,-2.492399931E0,2.719300032E0,3.412799835E0
2.601669286E1,-4.488999844E-1,1.276399970E0,-5.512999892E-1
2.603654442E1,1.043200016E0,4.746999741E-1,-4.036299706E0
2.605639754E1,1.967700005E0,-9.739999473E-2,-4.733399868E0
2.607625536E1,3.030499935E0,-5.281999707E-1,-3.663999796E0
2.609610223E1,3.998399973E0,-5.243999958E-1,-1.269400001E0
2.611595536E1,4.659499645E0,-7.688999772E-1,4.733999968E-1
2.613580848E1,4.416399956E0,-1.136699915E0,3.680999875E-1
2.615566004E1,2.640699863E0,-9.667999744E-1,-5.848000050E-1
2.617551317E1,1.868999898E-1,-4.775999784E-1,-2.595999837E-1
2.619536629E1,-1.828399897E0,-3.418000042E-1,2.717999816E-1
2.621521786E1,-2.235199928E0,-1.076999977E-1,1.170599937E0
2.623507567E1,-1.954699993E0,2.996000051E-1,1.509499907E0
2.625492411E1,-1.431599975E0,5.008000135E-1,9.598999619E-1
2.627477723E1,-7.206000090E-1,5.001000166E-1,-4.499999806E-2
2.629462879E1,-3.824999928E-1,3.730999827E-1,-1.027999997E0
2.631448192E1,-2.626000047E-1,2.090999931E-1,-1.726999998E0
2.633433504E1,-1.348000020E-1,-2.410999984E-1,-1.964399934E0
2.635418661E1,5.191999674E-1,-8.411999941E-1,-1.431899905E0
2.637403973E1,1.839100003E0,-1.703699946E0,-6.229999661E-1
2.639389129E1,2.580399990E0,-3.261099815E0,3.831999898E-1
2.641374442E1,2.313799858E0,-5.166299820E0,6.632999778E-1
2.643359754E1,1.245399952E0,-5.852399826E0,-9.239999950E-2
2.645345067E1,5.069999769E-2,-5.378099918E0,-4.843999743E-1
2.647330379E1,2.465999871E-1,-3.784099817E0,2.349999920E-2
2.649315536E1,1.294799924E0,-2.694200039E0,5.680000037E-2
2.651300848E1,1.523599982E0,-2.480499983E0,1.238999963E-1
2.653286161E1,3.833999932E-1,-3.423799992E0,1.508999914E-1
2.655271317E1,-2.006799936E0,-3.711199999E0,6.742999554E-1
2.657257098E1,-3.665999889E0,-3.238199949E0,1.203499913E0
2.659241786E1,-3.089399815E0,-1.946999907E0,1.288699985E0
2.661227098E1,-1.321399927E0,-6.013999581E-1,8.701999784E-1
2.663212411E1,1.294000000E-1,1.113499999E0,1.107999921E0
2.665197567E1,3.075000048E-1,2.045300007E0,3.980999887E-1
2.667182879E1,2.593999803E-1,2.644599915E0,2.848999798E-1
2.669168192E1,5.081999898E-1,2.808599949E0,3.060999811E-1
2.671153348E1,1.173300028E0,2.462199926E0,-4.143999815E-1
2.673138661E1,2.137699842E0,2.211299896E0,-1.491199970E0
2.675123973E1,2.460899830E0,2.208299875E0,-3.050499916E0
2.677109129E1,2.306499958E0,1.896699905E0,-5.830499649E0
2.679094442E1,-5.590000153E-1,2.150399923E0,-1.103299975E0
2.681079754E1,-1.751899958E0,1.715699911E0,1.389199972E0
2.683065067E1,-1.486199975E0,1.594200015E0,1.903099895E0
2.685050223E1,-5.776999593E-1,1.425199986E0,1.456799984E0
2.687035536E1,3.251000047E-1,1.239899993E0,-3.326999843E-1
2.689020848E1,7.484999895E-1,3.493999839E-1,-2.637599945E0
2.691006004E1,3.326999903E0,-1.465299964E0,-1.112729931E1
2.692991942E1,4.367199898E0,-3.595399857E0,-4.966199875E0
2.694976629E1,4.708099842E0,-4.831199646E0,1.969799995E0
2.696961942E1,2.181999922E0,-4.914400101E0,2.565899849E0
2.698947098E1,1.001699924E0,-6.282199860E0,3.049199820E0
2.700933036E1,5.166999698E-1,-7.224099636E0,4.526000023E-1
2.702917723E1,-1.686800003E0,-5.600499630E0,2.021999955E-1
2.704902879E1,-1.862699986E0,-2.942799807E0,9.674999714E-1
2.706888817E1,-2.802999914E-1,-8.323000073E-1,9.450999498E-1
2.708873504E1,3.400999904E-1,6.420999765E-1,1.550699949E0
2.710858661E1,-1.301399946E0,1.708099961E0,3.403299809E0
2.712843973E1,-2.947999954E0,2.302700043E0,3.738099813E0
2.714829286E1,-3.810299873E0,1.504199982E0,2.425699949E0
2.716814598E1,-1.070099950E0,3.264999986E-1,-1.017300010E0
2.718799754E1,2.067100048E0,-3.790000081E-2,-3.677099943E0
2.720785067E1,3.216499805E0,5.819999799E-2,-4.021800041E0
2.722770379E1,2.697199821E0,4.149999842E-2,-2.721699953E0
2.724755536E1,2.056900024E0,8.429999650E-2,-1.505499959E0
2.726740848E1,2.088399887E0,1.108999997E-1,-1.074299932E0
2.728726161E1,2.455600023E0,-2.750000060E-1,-9.812999964E-1
2.730711473E1,2.050699949E0,-7.173999548E-1,6.089999899E-2
2.732696629E1,7.673000097E-1,-8.687999845E-1,1.518700004E0
2.734681942E1,-2.827000022E-1,-9.836999774E-1,2.071099997E0
2.736667098E1,-5.935999751E-1,-8.970999718E-1,1.729799986E0
2.738652411E1,-3.009999990E-1,-6.136999726E-1,4.563999772E-1
2.740637723E1,3.109000027E-1,2.096999884E-1,-6.460999846E-1
2.742623036E1,4.716999829E-1,4.864999950E-1,-7.981999516E-1
2.744608192E1,2.161999941E-1,-8.029999584E-2,-7.429999858E-2
2.746593504E1,1.451999992E-1,-3.562999964E-1,1.123600006E0
2.748578817E1,-2.268999964E-1,-7.360000014E-1,1.358099937E0
2.750563973E1,-2.363999933E-1,-8.546999693E-1,7.609999925E-2
2.752549286E1,9.752999544E-1,-1.204100013E0,-1.047799945E0
2.754534598E1,2.567600012E0,-2.117199898E0,-1.304799914E0
2.756519754E1,2.577600002E0,-3.223799944E0,-8.536999822E-1
2.758505067E1,1.810699940E0,-4.916800022E0,4.680999815E-1
2.760490379E1,2.229599953E0,-4.307199955E0,-1.468999982E0
2.762476161E1,2.723799944E0,-3.079399824E0,1.887999922E-1
2.764460848E1,2.299999952E0,-2.622999907E0,1.778999925E0
2.766446161E1,9.478999972E-1,-2.285199881E0,2.292700052E0
2.768431317E1,-7.195000052E-1,-2.345099926E0,3.124199867E0
2.770416629E1,-2.079900026E0,-2.583899975E0,2.626499891E0
2.772401942E1,-2.482699871E0,-2.252099991E0,1.961799979E0
2.774387254E1,-1.706699967E0,-1.610899925E0,1.561999917E0
2.776372411E1,6.119999662E-2,-1.202700019E0,7.427999973E-1
2.778357723E1,2.500499964E0,-6.297999620E-1,-1.898499966E0
2.780343036E1,3.059999943E0,6.877999902E-1,-3.046000004E0
2.782328192E1,1.885800004E0,1.048499942E0,-1.084900022E0
2.784313504E1,2.333000004E-1,1.458299994E0,-2.857999802E-1
2.786298661E1,-9.842999578E-1,1.457299948E0,1.521999985E-1
2.788284129E1,-1.174299955E0,1.401199937E0,2.926999927E-1
2.790269286E1,-5.216999650E-1,1.788399935E0,5.633000135E-1
2.792254598E1,8.912999630E-1,2.113199949E0,1.023599982E0
2.794239754E1,2.047399998E0,2.442699909E0,1.156999946E0
2.796225067E1,2.314399958E0,2.267699957E0,1.309799910E0
2.798210379E1,5.403299809E0,9.369999766E-1,-2.508199930E0
2.800195536E1,6.177999973E0,1.369799972E0,-3.090199947E0
2.802180848E1,6.359499931E0,3.460000083E-2,-6.567999721E-1
2.804166161E1,4.660399914E0,-8.951999545E-1,2.578299999E0
2.806151942E1,2.658399820E0,-1.536999941E0,5.244299889E0
2.808136629E1,2.148299932E0,-1.176999927E0,5.879199982E0
2.810121942E1,3.444899797E0,-1.028299928E0,4.650599957E0
2.812107098E1,4.565700054E0,-9.559999704E-1,3.284999847E0
2.814092411E1,4.070099831E0,-1.277699947E0,3.494099855E0
2.816077723E1,1.371799946E0,-1.735799909E0,3.784699917E0
2.818063036E1,-3.911999762E-1,-1.193499923E0,3.771899939E0
2.820048192E1,5.009999871E-2,-9.730000049E-2,3.443599939E0
2.822033504E1,1.667299986E0,2.388999909E-1,2.441499949E0
2.824018817E1,1.982800007E0,6.128999591E-1,1.726599932E0
2.826004598E1,9.177999496E-1,-2.525999844E-1,1.930899978E0
2.827989286E1,-2.963999808E-1,-1.432699919E0,2.004099846E0
2.829974598E1,-2.412799835E0,4.328999817E-1,-1.396999955E-1
2.831959911E1,-1.765100002E0,1.763499975E0,-2.134399891E0
2.833945067E1,-6.485999823E-1,1.061900020E0,-2.731499910E0
2.835930379E1,-1.570299983E0,8.096999526E-1,-2.934099913E0
2.837915692E1,-2.777799845E0,9.225999713E-1,-4.032299995E0
2.839900848E1,-2.589400053E0,4.569999874E-1,-4.263700008E0
2.841886161E1,-1.878899932E0,9.369999766E-1,-3.470000029E0
2.843871473E1,-1.379699945E0,1.439000010E0,-2.080800056E0
2.845856629E1,-1.545799971E0,6.410999894E-1,-1.592899919E0
2.847841942E1,-1.948699951E0,3.982999921E-1,-1.622699976E0
2.849827254E1,-1.887199998E0,-1.948999912E-1,-1.342700005E0
2.851812411E1,-9.800999761E-1,-1.186699986E0,-1.822699904E0
2.853797723E1,-1.305999905E-1,-8.934999704E-1,-2.393599987E0
2.855783504E1,1.665000021E-1,-1.330000013E-1,-2.277999878E0
2.857768348E1,5.089999735E-2,2.069000006E-1,-1.561399937E0
2.859753504E1,1.282999963E-1,-4.229999781E-1,-1.384499907E0
2.861738817E1,2.875999808E-1,-1.268499970E0,-6.991999745E-1
2.863724129E1,2.442999929E-1,-1.480599999E0,-5.850999951E-1
2.865709442E1,-1.279999912E-1,-1.072600007E0,-1.415499926E0
2.867694598E1,-7.364999652E-1,-6.251999736E-1,-1.530699968E0
2.869679911E1,-1.266499996E0,-4.122000039E-1,-5.758000016E-1
2.871665223E1,-1.255599976E0,-2.061999887E-1,1.000200033E0
2.873650379E1,-4.050000012E-1,1.894000024E-1,2.285999954E-1
2.875635692E1,-8.709999919E-2,-5.181999803E-1,-2.529500008E0
2.877621004E1,1.681800008E0,-7.443999648E-1,-9.135999680E-1
2.879606161E1,1.470999956E0,-1.646799922E0,6.064599991E0
2.881591473E1,7.019000053E-1,-8.902999759E-1,9.547399521E0
2.883576786E1,-7.135999799E-1,9.970999956E-1,5.765899658E0
2.885561942E1,-2.331399918E0,1.211799979E0,-2.278499842E0
2.887547254E1,-1.133599997E0,2.033999920E0,-5.631199837E0
2.889532567E1,5.760999918E-1,3.137799978E0,-2.806799889E0
2.891517723E1,-4.461999834E-1,3.518999815E0,2.314399958E0
2.893503036E1,-2.280099869E0,2.287199974E0,2.444900036E0
2.895488817E1,-9.149000049E-1,-9.498999715E-1,-4.513999820E-1
2.897473504E1,-5.920000076E-1,-1.655399919E0,-1.201200008E0
2.899458817E1,-9.669999778E-2,-6.582999825E-1,7.190999985E-1
2.901444129E1,1.802799940E0,-4.057999849E-1,1.693499923E0
2.903429286E1,9.281999469E-1,-3.515999913E-1,1.131999940E-1
2.905414598E1,-1.846999973E-1,-7.249999791E-2,-1.968699932E0
2.907399911E1,-4.219999909E-2,-6.679999828E-2,-2.097800016E0
2.909385692E1,2.799999900E-3,-4.120000079E-2,-1.132599950E0
2.911370379E1,1.396999955E-1,-2.342999876E-1,1.765999943E-1
2.913355692E1,1.887999922E-1,-1.009999961E-1,1.488399982E0
2.915341004E1,-3.310999870E-1,3.181999922E-1,1.993499994E0
2.917326161E1,-8.167999983E-1,5.528999567E-1,1.107499957E0
2.919311473E1,-4.913999736E-1,8.580999970E-1,-7.059999704E-1
2.921296629E1,-2.449999936E-2,1.063699961E0,-1.254499912E0
2.923281942E1,3.889999986E-1,8.933999538E-1,-2.423999906E-1
2.925267254E1,6.057999730E-1,4.924999774E-1,1.525999904E-1
2.927252567E1,-2.126999944E-1,3.465999961E-1,1.451999992E-1
2.929237723E1,-1.013000011E0,3.401999772E-1,1.814000010E-1
2.931223036E1,-1.066799998E0,4.456999898E-1,3.580999970E-1
2.933208348E1,-5.694000125E-1,6.428999901E-1,6.927999854E-1
2.935193504E1,2.800000012E-1,8.007999659E-1,1.110999942E0
2.937178817E1,3.632999957E-1,1.350600004E0,1.407599926E0
2.939164129E1,-5.022999644E-1,1.483299971E0,1.061299920E0
2.941149286E1,-1.474499941E0,8.981999755E-1,6.419000030E-1
2.943134598E1,-1.785899997E0,6.000000052E-3,-1.548200011E0
2.945119911E1,-7.276999950E-1,-2.440999895E-1,-1.044299960E0
2.947105223E1,1.256999969E-1,-6.390000135E-2,-1.438999921E-1
2.949090379E1,4.032000005E-1,-1.931999922E-1,-4.729999900E-1
2.951075692E1,9.921999574E-1,-9.667999744E-1,-1.414199948E0
