"Time (s)","Linear Acceleration x (m/s^2)","Linear Acceleration y (m/s^2)","Linear Acceleration z (m/s^2)"
1.190731700E-2,-3.888399839E0,1.521600008E0,-1.057500005E0
3.175575500E-2,-1.855699897E0,1.811800003E0,2.089999989E-2
5.160731700E-2,-3.728999794E-1,2.027699947E0,3.387499809E0
7.146044200E-2,7.488999963E-1,1.489099979E0,4.671899796E0
9.131200500E-2,2.114300013E0,1.037999988E-1,3.426100016E0
1.111651300E-1,1.466599941E0,-8.176999688E-1,9.348999858E-1
1.310182550E-1,1.049899936E0,-7.999999449E-3,9.891999960E-1
1.508698170E-1,2.107999921E-1,6.969000101E-1,4.749999940E-1
1.707229420E-1,-1.144299984E0,3.076999784E-1,-8.417999744E-1
1.905760670E-1,-1.422799945E0,-9.717999697E-1,-1.255999923E0
2.104276300E-1,-1.003299952E0,-1.196200013E0,-1.928900003E0
2.302870050E-1,-1.628799915E0,-3.969999850E-1,-2.918999791E-1
2.501338800E-1,-2.282299995E0,-9.169999957E-1,-3.793999851E-1
2.699870050E-1,-9.511999488E-1,-5.314999819E-1,-1.231799960E0
2.898385670E-1,9.147999883E-1,-2.261800051E0,-1.671299934E0
3.096932550E-1,9.004999995E-1,-1.665899992E0,-1.070799947E0
3.295448170E-1,4.289999977E-2,-8.366999626E-1,3.127999902E-1
3.493963800E-1,-3.673999906E-1,-7.871999741E-1,3.811999857E-1
3.692495050E-1,-7.225999832E-1,-6.172999740E-1,-5.080000162E-1
3.891026300E-1,-5.074999928E-1,-3.353999853E-1,-2.318300009E0
4.089557550E-1,3.484999835E-1,-4.922999740E-1,-2.833499908E0
4.288073170E-1,5.845000148E-1,-7.699999809E-1,-3.104099989E0
4.486604420E-1,-3.172999918E-1,-9.452999830E-1,-2.432199955E0
4.685135670E-1,-1.995999962E-1,-9.985999465E-1,-6.883999705E-1
4.883651300E-1,-1.787000000E-1,-9.032999873E-1,1.243099928E0
5.082182550E-1,-2.221999913E-1,-6.746000051E-1,6.263999939E-1
5.280713800E-1,1.122200012E0,-1.034399986E0,-6.742999554E-1
5.479245050E-1,1.365700006E0,-8.989999890E-1,-1.828499913E0
5.677760670E-1,-2.199999988E-1,-1.470499992E0,3.515000045E-1
5.876307550E-1,-7.225999832E-1,-1.290199995E0,1.583499908E0
6.074823170E-1,1.421899915E0,-1.449999958E-1,8.224999905E-1
6.273338800E-1,2.637599945E0,-3.515000045E-1,-3.824999928E-1
6.471870050E-1,1.715899944E0,-8.995999694E-1,-2.210999876E-1
6.670401300E-1,-4.132999778E-1,-2.173500061E0,-8.697999716E-1
6.868932550E-1,-1.653599977E0,-2.778899908E0,-2.026999891E-1
7.067448170E-1,-1.574199915E0,-2.641899824E0,2.546599865E0
7.265995050E-1,-2.638799906E0,-2.687500000E0,4.507599831E0
7.464510670E-1,-4.672899723E0,-3.003799915E0,6.696099758E0
7.663041920E-1,-6.969099998E0,-3.439499855E0,8.269999504E0
7.861557550E-1,-3.780499935E0,-2.355299950E0,4.031399727E0
8.060088800E-1,-3.309700012E0,-1.636899948E0,5.394000053E0
8.258604420E-1,-4.223999977E0,-4.204499722E0,5.025899887E0
8.457135670E-1,-6.139899731E0,-4.851999760E0,2.190099955E0
8.655666920E-1,-6.752500057E0,-4.259200096E0,2.082099915E0
8.854182550E-1,-3.144199848E0,-2.399399996E0,-4.754999876E-1
9.052713800E-1,-1.348199964E0,-4.573999941E-1,-1.342399955E0
9.251245050E-1,-7.012999654E-1,2.518000007E-1,-4.799000025E-1
9.449760670E-1,-2.041800022E0,3.242999911E-1,-2.086699963E0
9.648291920E-1,-4.409800053E0,-1.107699990E0,-3.550199986E0
9.846823170E-1,-4.004300117E0,-1.519099951E0,-2.093600035E0
1.004535442E0,-3.221099854E0,-6.240000129E-1,4.953999817E-1
1.024387005E0,-1.166899920E0,1.303000003E-1,2.079200029E0
1.044240130E0,5.202000141E-1,4.992999732E-1,2.411399841E0
1.064091692E0,1.141999960E0,9.632999897E-1,1.243600011E0
1.083946380E0,2.720999956E0,1.303499937E0,1.092000008E0
1.103797942E0,5.230999947E0,2.011399984E0,1.895099998E0
1.123651067E0,4.474599838E0,2.007299900E0,-8.137999773E-1
1.143502630E0,2.378799915E0,1.761099935E0,-1.319800019E0
1.163355755E0,-5.279999971E-1,1.140000001E-1,-3.045500040E0
1.183208880E0,-1.189800024E0,-2.109999895E0,-5.834499836E0
1.203068255E0,-1.250299931E0,-1.962199926E0,-5.545700073E0
1.222915130E0,1.457899928E0,-2.061399937E0,-6.886600018E0
1.242766692E0,1.233600020E0,-8.826999664E-1,-3.555699825E0
1.262619817E0,-1.184800029E0,3.539999947E-2,7.895999551E-1
1.282471380E0,-9.672999978E-1,-1.203899980E0,1.636199951E0
1.302324505E0,1.241999984E0,4.759999737E-2,4.317399979E0
1.322177630E0,2.553999901E0,6.803999543E-1,2.606699944E0
1.342029192E0,2.964799881E0,1.639799953E0,3.040799856E0
1.361880755E0,2.677700043E0,1.662699938E0,1.055599928E0
1.381733880E0,3.723199844E0,5.863299847E0,-1.298299909E0
1.401588567E0,1.263000011E0,-2.411099911E0,-2.307399988E0
1.421440130E0,9.090999961E-1,-1.343500018E0,-1.669999957E0
1.441291692E0,-1.264099956E0,-2.599799871E0,-1.054600000E0
1.461146380E0,-1.567899942E0,-2.118999958E0,6.327999830E-1
1.480997942E0,-5.834000111E-1,1.101999953E-1,-1.238999963E-1
1.500849505E0,7.698000073E-1,1.032599926E0,-2.195999920E-1
1.520704192E0,-5.365999937E-1,9.809999913E-2,-6.328999996E-1
1.540555755E0,-1.379999995E0,-7.572000027E-1,1.621599913E0
1.560408880E0,-2.193099976E0,-1.690599918E0,7.500999570E-1
1.580262005E0,-7.277999520E-1,-9.977999926E-1,-3.819999844E-2
1.600115130E0,1.960000023E-2,-1.334399939E0,1.730199933E0
1.619966692E0,5.590999722E-1,-1.767599940E0,1.203599930E0
1.639818255E0,1.681999922E0,-3.586399794E0,1.889699936E0
1.659672942E0,-3.510499954E0,-6.151799679E0,-5.949000120E-1
1.679524505E0,-2.448899984E0,-5.721399784E0,-1.924899936E0
1.699377630E0,-2.823799849E0,-5.275000095E0,-3.276700020E0
1.719229192E0,-4.008500099E0,-4.123799801E0,-3.583799839E0
1.739083880E0,-1.874099970E0,-2.317199945E0,-1.717399955E0
1.758935442E0,-2.049099922E0,-3.847000003E-1,-7.838000059E-1
1.778787005E0,-1.832000017E-1,2.000499964E0,-2.219999954E-2
1.798640130E0,2.490700006E0,2.888399839E0,-1.242999956E-1
1.818493255E0,1.072499990E0,5.013499737E0,-4.050000012E-1
1.838346380E0,2.279700041E0,3.917599916E0,1.881299973E0
1.858197942E0,-2.549999952E-2,-7.152999640E-1,1.192600012E0
1.878051067E0,-7.084999681E-1,-1.926199913E0,1.658399940E0
1.897904192E0,6.965999603E-1,-2.376699924E0,3.671799898E0
1.917755755E0,4.189799786E0,-3.206999898E-1,2.742699862E0
1.937608880E0,4.041500092E0,-1.126099944E0,7.746999860E-1
1.957462005E0,1.025300026E0,-2.260900021E0,5.513799667E0
1.977313567E0,-3.961299896E0,-1.897699952E0,1.748899937E0
1.997166692E0,-4.613299847E0,1.194499969E0,1.055199981E0
2.017019817E0,-1.191299915E0,-3.789999783E-1,3.502999842E-1
2.036871380E0,1.099999994E-1,-3.030900002E0,-2.289199829E0
2.056724505E0,2.917000055E-1,7.784999609E-1,-2.472800016E0
2.076577630E0,2.714299917E0,3.352499962E0,-2.051599979E0
2.096430755E0,1.059100032E0,4.971799850E0,-1.084100008E0
2.116282317E0,4.090999961E-1,4.464999676E0,-2.417999953E-1
2.136135442E0,2.361999989E0,3.230399847E0,-8.466999531E-1
2.155988567E0,3.501399994E0,3.621399879E0,-1.393499970E0
2.175840130E0,2.239599943E0,2.973699808E0,3.366999924E-1
2.195693255E0,3.794699907E0,-3.739999831E-1,3.804399967E0
2.215546380E0,3.731999993E-1,-1.956999898E-1,4.497600079E0
2.235399505E0,-1.178900003E0,-6.412999630E-1,1.498999953E0
2.255251067E0,-1.545399904E0,-9.837999940E-1,-1.245599985E0
2.275104192E0,-1.514599919E0,-2.609999850E-2,-2.370399952E0
2.294957317E0,-2.969999909E-1,9.237999916E-1,-1.553200006E0
2.314808880E0,8.987999558E-1,1.482299924E0,-4.192999899E-1
2.334662005E0,1.136199951E0,-6.244999766E-1,-1.346099973E0
2.354515130E0,1.800499916E0,-4.318399906E0,-3.586699963E0
2.374366692E0,-3.326999843E-1,-7.661099911E0,-2.746999979E0
2.394219817E0,2.319299936E0,-3.520200014E0,-1.437199950E0
2.414072942E0,1.813499928E0,1.552399993E0,-3.003199816E0
2.433924505E0,1.557099938E0,4.124799728E0,-3.652899981E0
2.453777630E0,2.152799845E0,3.584899902E0,-3.726499796E0
2.473630755E0,1.420499921E0,2.524299860E0,-2.304499865E0
2.493482317E0,7.841999531E-1,3.394999802E-1,-3.750999868E-1
2.513335442E0,3.293799877E0,-1.245389938E1,2.320099831E0
2.533188567E0,3.575199842E0,-2.077629852E1,4.661600113E0
2.553041692E0,2.601799965E0,-6.277599812E0,6.693899632E0
2.572894817E0,1.574000001E0,8.290999532E-1,2.402099848E0
2.592746380E0,1.131099939E0,2.327800035E0,-1.807699919E0
2.612599505E0,4.745000005E-1,1.858099937E0,-2.101500034E0
2.632452630E0,-9.871999621E-1,7.609999776E-1,-1.160899997E0
2.652304192E0,-1.754599929E0,3.050999939E-1,-1.706999987E-1
2.672157317E0,-1.709800005E0,1.232999936E-1,4.120999873E-1
2.692010442E0,-1.148299932E0,4.553999901E-1,4.134999812E-1
2.711862005E0,-3.929999769E-1,1.084900022E0,6.545999646E-1
2.731721380E0,2.944000065E-1,1.363099933E0,7.788999677E-1
2.751568255E0,2.703999877E-1,1.048900008E0,5.949999765E-2
2.771419817E0,-4.759999812E-1,3.752000034E-1,-3.077999949E-1
2.791272942E0,-1.368099928E0,-1.746999919E-1,-2.197999954E-1
2.811126067E0,-1.641999960E0,-5.363999605E-1,6.564999819E-1
2.830979192E0,-1.578699946E0,-9.598999619E-1,1.406000018E0
2.850830755E0,-9.456999898E-1,-1.526099920E0,9.128999710E-1
2.870683880E0,2.263999879E-1,-1.735899925E0,-2.665999830E-1
2.890537005E0,1.707199931E0,-3.324100018E0,-1.852999926E-1
2.910388567E0,2.186599970E0,-5.622299671E0,6.834999919E-1
2.930241692E0,9.894999862E-1,-5.915199757E0,-6.319999695E-2
2.950094817E0,6.435999870E-1,-4.476599693E0,-1.036999941E0
2.969946380E0,1.233099937E0,-3.468599796E0,-7.518000007E-1
2.989799505E0,2.315299988E0,-3.605599880E0,-5.467000008E-1
3.009652630E0,3.319499969E0,-3.783699989E0,-1.347899914E0
3.029505755E0,3.238799810E0,-4.894199848E0,-1.920599937E0
3.049357317E0,3.076599836E0,-6.234799862E0,-3.030699968E0
3.069210442E0,-6.674999595E-1,-3.665599823E0,5.519999936E-2
3.089063567E0,-2.632499933E0,-1.886899948E0,1.945400000E0
3.108915130E0,-2.731499910E0,-4.290999770E-1,2.167899847E0
3.128766692E0,-1.899699926E0,2.287999988E-1,1.671999931E0
3.148621380E0,1.099999994E-2,3.820999861E-1,-1.105000004E-1
3.168472942E0,2.110199928E0,5.550999641E-1,-1.539600015E0
3.188326067E0,1.644400001E0,1.493499994E0,-1.861099958E0
3.208177630E0,1.059199929E0,2.665400028E0,-1.035200000E0
3.228030755E0,-1.090000011E-2,3.083599806E0,-9.039999545E-2
3.247883880E0,-1.019199967E0,3.493399858E0,8.649999499E-1
3.267737005E0,-1.162999988E0,3.904500008E0,1.707999945E0
3.287588567E0,-1.054999948E0,4.592799664E0,1.605700016E0
3.307441692E0,-1.541999936E0,5.460899830E0,1.365999937E0
3.327293255E0,-2.533299923E0,6.367799759E0,8.417999744E-1
3.347146380E0,-3.392799854E0,6.354899883E0,2.164999992E-1
3.366999505E0,-3.058300018E0,4.637399673E0,-1.735999882E-1
3.386852630E0,-2.217399836E0,1.495899916E0,8.386999965E-1
3.406704192E0,-5.199999809E-1,-2.758100033E0,3.163899899E0
3.426557317E0,1.201799989E0,-6.616799831E0,5.026599884E0
3.446410442E0,8.299999833E-1,-9.005800247E0,3.930299997E0
3.466262005E0,-1.597399950E0,-6.835499763E0,1.676100016E0
3.486115130E0,-1.604900002E0,-4.535699844E0,1.408999920E0
3.505968255E0,6.586999893E-1,-5.602999687E0,-4.150799751E0
3.525819817E0,4.986499786E0,-9.321199417E0,-4.825799942E0
3.545672942E0,5.310100079E0,-9.138500214E0,-4.364799976E0
3.565526067E0,5.516599655E0,-8.930000067E-1,-2.531800032E0
3.585379192E0,4.859999657E0,5.058000088E0,-2.935899973E0
3.605230755E0,3.291299820E0,6.453099728E0,-2.237999916E0
3.625083880E0,4.183999896E-1,2.380199909E0,-3.537799835E0
3.644937005E0,-2.598899841E0,-3.623699903E0,-3.147599936E0
3.664788567E0,-5.291999817E0,-8.227199554E0,-7.778999805E-1
3.684641692E0,-5.191799641E0,-8.710800171E0,2.096499920E0
3.704494817E0,-4.003699780E0,-6.834899902E0,3.659999847E0
3.724346380E0,-2.434099913E0,-2.944399834E0,4.616600037E0
3.744199505E0,-6.838999987E-1,4.414999783E-1,3.341899872E0
3.764052630E0,8.908999562E-1,1.141499996E0,1.545099974E0
3.783904192E0,2.141199827E0,7.662999630E-1,-7.810999751E-1
3.803757317E0,2.506099939E0,9.590999484E-1,-2.399799824E0
3.823610442E0,1.684799910E0,1.516899943E0,-2.478399992E0
3.843463567E0,-5.658999681E-1,1.478899956E0,-9.570999742E-1
3.863315130E0,-2.079699993E0,9.745000005E-1,3.158999979E-1
3.883168255E0,-2.214400053E0,8.599999547E-2,9.954999685E-1
3.903021380E0,-1.724499941E0,2.499999851E-2,1.148199916E0
3.922874505E0,-1.753000021E-1,4.633999765E-1,1.029399991E0
3.942726067E0,1.245399952E0,5.078999996E-1,1.109200001E0
3.962579192E0,1.793399930E0,-5.159999728E-1,1.365999937E0
3.982432317E0,1.457099915E0,-1.655599952E0,1.635999918E0
4.002283880E0,1.231499910E0,-1.975699902E0,5.949000120E-1
4.022137005E0,1.554099917E0,-1.462299943E0,-6.200999618E-1
4.041990130E0,1.117900014E0,-8.459999561E-1,-1.471899986E0
4.061841692E0,7.735999823E-1,-1.119799972E0,-5.874999762E-1
4.081694817E0,1.103999987E-1,-2.292700052E0,1.489599943E0
4.101546380E0,-2.036000013E0,-4.633100033E0,1.546299934E0
4.121399505E0,-4.143000126E0,-5.508199692E0,1.358000040E-1
4.141252630E0,-4.058399677E0,-5.824399948E0,-1.654699922E0
4.161105755E0,-1.224699974E0,-6.674799919E0,-2.481999874E0
4.180957317E0,3.214200020E0,-5.340300083E0,-2.269899845E0
4.200810442E0,6.509399891E0,-6.195099831E0,-1.361400008E0
4.220663567E0,6.258899689E0,-6.684199810E0,-1.879499912E0
4.240515130E0,5.070099831E0,-4.989199638E0,-1.187799931E0
4.260368255E0,1.723599911E0,-2.732499838E0,5.295999646E-1
4.280221380E0,-1.903899908E0,-1.587399960E0,1.557099938E0
4.300072942E0,-3.974599838E0,-9.301999807E-1,2.267499924E0
4.319926067E0,-3.559099913E0,-6.886999607E-1,1.064100027E0
4.339777630E0,-2.042199850E0,-1.560999900E-1,-1.265900016E0
4.359632317E0,9.269999713E-2,6.629999876E-1,-1.948099971E0
4.379483880E0,1.322600007E0,1.892799973E0,-1.189899921E0
4.399337005E0,1.338899970E0,3.245100021E0,-3.104999959E-1
4.419188567E0,8.984999657E-1,4.166500092E0,3.705999851E-1
4.439043255E0,4.795999825E-1,5.880499840E0,1.120999932E0
4.458894817E0,2.655999959E-1,7.538099766E0,1.466899991E0
4.478747942E0,-1.166000009E0,8.270299911E0,2.565999985E0
4.498599505E0,-4.407499790E0,6.920199871E0,2.975299835E0
4.518452630E0,-5.041599751E0,2.750399828E0,2.052899837E0
4.538305755E0,-3.375999928E0,-1.773999929E-1,1.899199963E0
4.558157317E0,-1.081399918E0,-2.082000017E0,1.694499969E0
4.578010442E0,2.486500025E0,-4.618299961E0,2.068500042E0
4.597862005E0,3.480299950E0,-6.734999657E0,1.666899920E0
4.617715130E0,2.870899916E0,-8.181399345E0,4.695799828E0
4.637568255E0,1.338299990E0,-8.014200211E0,-1.141099930E0
4.657421380E0,5.451900005E0,-1.224179935E1,-1.953599930E0
4.677272942E0,4.917999744E0,-1.443089962E1,-1.718699932E0
4.697126067E0,-1.933799982E0,-4.265100002E0,-3.603699923E0
4.716979192E0,-3.013199806E0,4.285900116E0,-4.935499668E0
4.736830755E0,-2.458699942E0,7.903999805E0,-3.452299833E0
4.756683880E0,-2.588999867E-1,5.675799847E0,-2.316599846E0
4.776537005E0,1.283299923E0,6.060000062E-1,1.110100031E0
4.796390130E0,-1.068799973E0,-4.063600063E0,3.159699917E0
4.816241692E0,-2.664000034E0,-6.725800037E0,3.730199814E0
4.836094817E0,-2.087699890E0,-4.885999680E0,3.652099848E0
4.855947942E0,-5.365999937E-1,-8.782999516E-1,1.884299994E0
4.875801067E0,6.872000098E-1,2.029099941E0,-5.499999970E-3
4.895652630E0,1.360099912E0,2.394399881E0,-5.044999719E-1
4.915505755E0,1.323799968E0,1.535200000E0,8.489999920E-2
4.935358880E0,5.157999992E-1,8.922999501E-1,-2.092999965E-1
4.955215130E0,1.797000021E-1,7.644000053E-1,-5.540999770E-1
4.975063567E0,1.783999950E-1,4.452999830E-1,-3.613999784E-1
4.994916692E0,1.779999956E-2,8.500000089E-2,2.122000009E-1
5.014768255E0,-5.981000066E-1,2.832999825E-1,1.156999990E-1
5.034621380E0,-1.018700004E0,8.679999411E-2,-3.888999820E-1
5.054474505E0,-6.039999723E-1,-1.957999915E-1,-1.402099967E0
5.074326067E0,-1.444000006E-1,-4.178999960E-1,-1.556599975E0
5.094179192E0,2.353999913E-1,-1.148299932E0,-6.226999760E-1
5.114032317E0,3.136000037E-1,-1.469200015E0,8.736999631E-1
5.133885442E0,1.939999871E-2,-1.151399970E0,3.813199997E0
5.153737005E0,8.429999948E-1,-1.894400001E0,5.627899647E0
5.173590130E0,1.202000022E0,-2.769299984E0,3.742199898E0
5.193441692E0,6.189000010E-1,-2.427299976E0,-7.978999615E-1
5.213294817E0,-4.824999869E-1,-2.817800045E0,-3.082700014E0
5.233147942E0,-1.029600024E0,-4.567599773E0,-2.876399994E0
5.253001067E0,-1.543999910E0,-5.304299831E0,-1.962899923E0
5.272852630E0,-1.842099905E0,-3.982599974E0,-6.405999660E-1
5.292704192E0,-3.745999932E-1,-2.875099897E0,-1.114000008E-1
5.312558880E0,2.546999931E0,-2.826599836E0,1.759999990E-1
5.332412005E0,4.762000084E0,-3.481400013E0,-9.691999555E-1
5.352263567E0,5.418299675E0,-4.516299725E0,-1.712700009E0
5.372116692E0,4.732699871E0,-4.069999695E0,-2.319000006E0
5.391969817E0,2.484499931E0,-3.929699898E0,-1.849699974E0
5.411821380E0,-1.088899970E0,-2.373499870E0,2.075999975E-1
5.431674505E0,-2.699499846E0,-1.191100001E0,1.312999964E0
5.451527630E0,-2.654799938E0,6.579999626E-2,1.733699918E0
5.471379192E0,-2.123100042E0,5.228999853E-1,8.256999850E-1
5.491232317E0,-9.406999946E-1,-8.429999650E-2,-1.100999936E-1
5.511085442E0,-2.273999900E-1,-3.775999844E-1,-6.439999938E-1
5.530938567E0,4.790999889E-1,-8.089999855E-2,-8.684999943E-1
5.550790130E0,8.139999509E-1,1.203699946E0,-1.002599955E0
5.570641692E0,8.029999733E-1,2.730299950E0,-3.258000016E-1
5.590496380E0,8.672999740E-1,4.097000122E0,5.471999645E-1
5.610347942E0,4.681999981E-1,5.227499962E0,1.483899951E0
5.630199505E0,-1.090999991E-1,6.084599972E0,1.773499966E0
5.650052630E0,-1.605899930E0,5.880099773E0,1.521799922E0
5.669907317E0,-3.444499969E0,5.371699810E0,9.451999664E-1
5.689758880E0,-4.390199661E0,4.729700089E0,1.442999989E-1
5.709610442E0,-4.011300087E0,3.533900023E0,1.244999990E-1
5.729463567E0,-1.983299971E0,1.077000022E0,1.952099919E0
5.749316692E0,-8.804000020E-1,-2.504199982E0,4.656899929E0
5.769169817E0,-2.276999950E-1,-6.047699928E0,6.464200020E0
5.789021380E0,-5.374999642E-1,-8.331399918E0,5.546799660E0
5.808874505E0,-1.598399997E0,-6.678199768E0,2.676399946E0
5.828726067E0,-1.881699920E0,-4.846399784E0,3.663699865E0
5.848579192E0,-4.176999927E-1,-5.129199982E0,-2.611500025E0
5.868432317E0,2.514699936E0,-7.232999802E0,-3.830499887E0
5.888283880E0,5.255799770E0,-8.898099899E0,-3.259199858E0
5.908137005E0,5.893199921E0,-1.121699929E0,-4.344799995E0
5.927990130E0,3.845199823E0,5.697299957E0,-3.594199896E0
5.947841692E0,9.933999777E-1,5.539700031E0,-5.245999813E0
5.967694817E0,-1.197199941E0,1.182199955E0,-4.266900063E0
5.987547942E0,-2.434599876E0,-3.799099922E0,-1.494799972E0
6.007401067E0,-2.771800041E0,-5.491899967E0,1.901099920E0
6.027252630E0,-2.400499821E0,-5.470699787E0,4.997200012E0
6.047105755E0,-2.202600002E0,-3.871299982E0,5.016699791E0
6.066958880E0,-1.345999956E0,-1.283499956E0,3.537999868E0
6.086812005E0,-7.107999921E-1,5.485999584E-1,1.093199968E0
6.106663567E0,4.325999916E-1,1.214200020E0,-5.439999700E-1
6.126516692E0,1.156599998E0,1.566799998E0,-1.355099916E0
6.146369817E0,9.460999966E-1,1.719799995E0,-1.754899979E0
6.166221380E0,1.821999997E-1,1.417599916E0,-1.199499965E0
6.186074505E0,-7.455999851E-1,5.378000140E-1,7.012999654E-1
6.205932317E0,-1.170199990E0,-4.736000001E-1,2.129099846E0
6.225780755E0,-7.519999743E-1,-7.191999555E-1,1.756399989E0
6.245632317E0,2.506999969E-1,-5.374999642E-1,6.696999669E-1
6.265485442E0,1.682299972E0,-3.601999879E-1,-7.536000013E-1
6.285337005E0,2.038599968E0,-4.512999952E-1,-9.248999953E-1
6.305190130E0,1.001399994E0,-4.743999839E-1,-1.875000000E-1
6.325041692E0,-8.154999614E-1,-3.748999834E-1,8.374999762E-1
6.344896380E0,-1.811800003E0,-5.101999640E-1,3.455999792E-1
6.364747942E0,-1.167199969E0,-9.716999531E-1,-9.034000039E-1
6.384601067E0,-3.310999870E-1,-9.469999671E-1,-1.101599932E0
6.404454192E0,-1.289999951E-2,-1.551899910E0,-6.286000013E-1
6.424307317E0,-2.861000001E-1,-3.612999916E0,1.272999942E-1
6.444158880E0,-5.943999887E-1,-5.327199936E0,8.615999818E-1
6.464012005E0,-8.980000019E-1,-7.069799900E0,5.529999733E-1
6.483865130E0,-3.574999869E-1,-7.628399849E0,-1.331599951E0
6.503716692E0,1.953899980E0,-4.888799667E0,-1.358999968E0
6.523568255E0,4.953599930E0,-2.237499952E0,2.578999996E-1
6.543422942E0,5.407000065E0,-1.029500008E0,1.539600015E0
6.563276067E0,4.567299843E0,-8.708999753E-1,3.897999823E-1
6.583127630E0,2.637300014E0,-1.605299950E0,-1.638799906E0
6.602980755E0,-9.757999778E-1,-1.667499900E0,-2.322700024E0
6.622838567E0,-5.690700054E0,-5.457999706E-1,-5.464000106E-1
6.642685442E0,-4.171700001E0,-1.099200010E0,1.042799950E0
6.662537005E0,-1.653599977E0,-1.234399915E0,1.312099934E0
6.682390130E0,4.608999789E-1,-1.322600007E0,6.930999756E-1
6.702243255E0,1.464399934E0,-7.976999879E-1,6.570000201E-2
6.722096380E0,9.949999452E-1,-4.580000043E-2,-1.332999915E-1
6.741947942E0,4.077999890E-1,8.939999938E-1,-1.278999895E-1
6.761807317E0,2.069000006E-1,1.619499922E0,6.879999489E-2
6.781652630E0,5.150000006E-2,2.581599951E0,2.324000001E-1
6.801505755E0,8.869999647E-2,3.199699879E0,2.579999864E-1
6.821358880E0,-4.779999703E-2,5.197199821E0,4.583999813E-1
6.841210442E0,-3.711999953E-1,5.726099968E0,1.985999942E-1
6.861065130E0,-1.285399914E0,5.907000065E0,5.359999835E-2
6.880918255E0,-2.414399862E0,5.611999989E0,-1.757999957E-1
6.900776067E0,-3.304499865E0,4.536799908E0,-4.579999745E-1
6.920621380E0,-3.123099804E0,3.038800001E0,-3.189999983E-2
6.940474505E0,-1.891499996E0,1.027300000E0,1.188300014E0
6.960327630E0,-7.227999568E-1,-1.845999956E0,2.485299826E0
6.980180755E0,9.299999475E-2,-5.420700073E0,4.933499813E0
7.000032317E0,-4.999999655E-4,-8.160300255E0,5.246299744E0
7.019885442E0,-5.952000022E-1,-8.218400002E0,4.109200001E0
7.039738567E0,1.650399923E0,-1.188179970E1,3.719699860E0
7.059590130E0,4.209000111E0,-1.628050041E1,-5.267199993E0
7.079443255E0,3.240999877E-1,-9.336400032E0,-6.872900009E0
7.099294817E0,-9.167999625E-1,2.427099943E0,-9.361899376E0
7.119147942E0,1.675999910E-1,8.638899803E0,-4.221600056E0
7.139001067E0,1.547199965E0,8.981699944E0,-4.299999680E-3
7.158854192E0,3.953899860E0,2.446599960E0,6.880999804E-1
7.178705755E0,8.897999525E-1,-2.937899828E0,1.497699976E0
7.198558880E0,-2.542599916E0,-6.908799648E0,2.008899927E0
7.218412005E0,-3.937999964E0,-7.958399773E0,2.319599867E0
7.238265130E0,-2.548799992E0,-5.860099792E0,4.440499783E0
7.258116692E0,-1.011500001E0,-1.573099971E0,4.516099930E0
7.277969817E0,3.209999949E-2,1.566999912E0,2.141000032E0
7.297822942E0,4.420000017E-1,1.890499949E0,2.543999851E-1
7.317680755E0,1.756999940E-1,1.276000023E0,-1.110599995E0
7.337527630E0,1.388999969E-1,1.023900032E0,-1.115199924E0
7.357380755E0,4.224999845E-1,8.646999598E-1,-9.337999821E-1
7.377233880E0,4.707999825E-1,4.984999895E-1,-8.413999677E-1
7.397085442E0,3.901999891E-1,-5.350000039E-2,-9.343000054E-1
7.416938567E0,2.446999997E-1,-2.453999966E-1,-1.030900002E0
7.436791692E0,-4.499999806E-2,-3.675999939E-1,-5.604999661E-1
7.456643255E0,-1.349999905E-1,-4.804999828E-1,-1.550000012E-1
7.476496380E0,-2.744999826E-1,-9.642999768E-1,6.866999865E-1
7.496349505E0,-6.480999589E-1,-1.379299998E0,1.652999997E0
7.516201067E0,-5.390999913E-1,-1.660499930E0,2.292599916E0
7.536054192E0,-1.958999932E-1,-1.583899975E0,2.389799833E0
7.555907317E0,-2.504000068E-1,-1.037099957E0,2.352399826E0
7.575758880E0,-4.538999796E-1,-8.728999496E-1,1.401999891E-1
7.595612005E0,-1.249499917E0,-2.064699888E0,-2.604399920E0
7.615465130E0,-1.555199981E0,-4.289400101E0,-3.773000002E0
7.635316692E0,-2.085999995E-1,-5.486899853E0,-2.119999886E0
7.655169817E0,1.646600008E0,-4.324100018E0,-2.903999984E-1
7.675022942E0,3.561999798E0,-2.536200047E0,1.264599919E0
7.694876067E0,4.162799835E0,-2.034199953E0,1.889299989E0
7.714727630E0,3.290499926E0,-2.985800028E0,4.828999937E-1
7.734579192E0,2.467099905E0,-3.588799953E0,-1.198300004E0
7.754432317E0,2.000699997E0,-4.397999763E0,-2.740200043E0
7.774285442E0,3.788000047E-1,-2.893100023E0,-2.390100002E0
7.794137005E0,-4.668999910E-1,-1.997899890E0,-3.797999918E-1
7.813990130E0,-7.626000047E-1,-1.426100016E0,4.677999914E-1
7.833843255E0,-4.751999974E-1,-7.817999721E-1,7.500999570E-1
7.853694817E0,-9.269999862E-1,-2.568999827E-1,5.486999750E-1
7.873547942E0,-1.106199980E0,-2.291999906E-1,1.044899940E0
7.893401067E0,-9.189999700E-1,-7.279999554E-2,6.426999569E-1
7.913254192E0,1.609999873E-2,5.539999902E-2,-2.899999917E-2
7.933105755E0,-7.561999559E-1,1.687600017E0,-6.405999660E-1
7.952958880E0,3.659999743E-2,2.782299995E0,-5.109999776E-1
7.972812005E0,5.123999715E-1,3.644999981E0,1.006999984E-1
7.992663567E0,2.848999798E-1,5.187599659E0,7.975999713E-1
8.012516692E0,4.904999733E-1,6.273599625E0,8.807999492E-1
8.032369817E0,-1.051100016E0,6.837899685E0,7.409999967E-1
8.052222942E0,-2.891899824E0,6.183799744E0,3.629999980E-2
8.072074505E0,-3.990799904E0,5.369199753E0,-6.556000113E-1
8.091929192E0,-4.305399895E0,4.036799908E0,-9.848999977E-1
8.111780755E0,-2.484999895E0,1.838799953E0,2.159999870E-2
8.131632317E0,-7.688999772E-1,-2.129400015E0,4.180299759E0
8.151485442E0,3.012000024E-1,-8.454699516E0,8.386499405E0
8.171338567E0,1.060899973E0,-1.279500008E1,7.815899849E0
8.191191692E0,1.780999899E-1,-8.360599518E0,3.597800016E0
8.211044817E0,-4.962999821E-1,-2.110300064E0,1.209699988E0
8.230896380E0,-5.311999917E-1,1.935199976E0,1.888899922E0
8.250749505E0,1.539499998E0,5.867999792E-1,-2.189199924E0
8.270602630E0,5.345200062E0,-6.575199604E0,-8.678999543E-1
8.290454192E0,4.460000038E0,-1.238569927E1,-4.365200043E0
8.310307317E0,-5.047999620E-1,-6.221499920E0,-5.214200020E0
8.330158880E0,4.905999899E-1,1.858599901E0,-6.294399738E0
8.350012005E0,1.064999938E0,5.999799728E0,-2.794499874E0
8.369865130E0,1.729799986E0,4.233900070E0,-1.272300005E0
8.389718255E0,9.571999907E-1,4.479999840E-2,-7.213999629E-1
8.409569817E0,-1.540599942E0,-4.276299953E0,3.617999852E-1
8.429422942E0,-2.537299871E0,-4.670899868E0,1.067000031E0
8.449276067E0,-2.800400019E0,-4.044499874E0,2.845299959E0
8.469127630E0,-2.462399960E0,-2.840800047E0,3.685499907E0
8.488980755E0,-1.625499964E0,-1.008399963E0,2.984200001E0
8.508833880E0,-1.756199956E0,1.342999935E-1,9.868999720E-1
8.528687005E0,-8.382999897E-1,8.276000023E-1,-4.000999928E-1
8.548538567E0,3.322999775E-1,1.053599954E0,-1.334200025E0
8.568397942E0,1.446900010E0,1.308300018E0,-1.312199950E0
8.588243255E0,1.291899920E0,8.938999772E-1,-6.281999946E-1
8.608096380E0,1.660999954E-1,1.458999962E-1,3.748999834E-1
8.627949505E0,-9.478999972E-1,-4.975999892E-1,1.262899995E0
8.647802630E0,-1.144500017E0,-4.755999744E-1,1.435199976E0
8.667654192E0,-9.359999746E-2,-2.087000012E-1,8.249999881E-1
8.687507317E0,1.325299978E0,3.026999831E-1,-1.808999926E-1
8.707360442E0,2.151599884E0,5.397999883E-1,-9.641999602E-1
8.727213567E0,2.043799877E0,-2.769999802E-1,-2.131999880E-1
8.747065130E0,3.590999842E-1,-1.196599960E0,2.034699917E0
8.766918255E0,-3.252999783E-1,-1.588999987E0,1.162400007E0
8.786771380E0,6.560000032E-2,-1.649799943E0,-2.820000052E-1
8.806622942E0,7.505999804E-1,-1.024399996E0,-1.070699930E0
8.826476067E0,7.254999876E-1,-9.122999907E-1,-9.172999859E-1
8.846329192E0,-4.702999890E-1,-2.314199924E0,5.829999968E-2
8.866182317E0,-2.629799843E0,-4.831099987E0,8.068000078E-1
8.886033880E0,-3.996799946E0,-6.127099991E0,1.453099966E0
8.905887005E0,-3.829899788E0,-6.886600018E0,-7.732999921E-1
8.925738567E0,-9.372999668E-1,-6.517799854E0,-2.255300045E0
8.945591692E0,2.888999939E0,-4.697599888E0,-1.587299943E0
8.965444817E0,5.464999676E0,-3.417500019E0,-1.580999970E0
8.985297942E0,5.314499855E0,-3.429299831E0,-8.037999868E-1
9.005149505E0,4.350800037E0,-3.403299809E0,-1.167500019E0
9.025002630E0,2.445099831E0,-1.811499953E0,-8.766999841E-1
9.044854192E0,-6.667000055E-1,-3.490999937E-1,9.176999927E-1
9.064708880E0,-2.634799957E0,2.080999911E-1,2.216699839E0
9.084560442E0,-3.349399805E0,-7.409999520E-2,1.153399944E0
9.104413567E0,-3.065599918E0,-5.888999701E-1,5.073999763E-1
9.124266692E0,-1.759899974E0,-9.220999479E-1,-2.888999879E-1
9.144116692E0,-7.597999573E-1,-7.533999681E-1,-4.350999892E-1
9.163969817E0,5.663999915E-1,-6.300000101E-2,-1.757999957E-1
9.183824505E0,1.966199994E0,1.435199976E0,-5.089999735E-2
9.203676067E0,2.186899900E0,2.588699818E0,-1.279999968E-2
9.223529192E0,1.881899953E0,5.293499947E0,-2.699999837E-3
9.243380755E0,1.162599921E0,6.084300041E0,4.849999771E-2
9.263233880E0,-4.046999812E-1,6.150899887E0,4.448999763E-1
9.283085442E0,-2.476099968E0,5.223099709E0,4.405999780E-1
9.302940130E0,-4.673199654E0,3.731999874E0,2.447999865E-1
9.322791692E0,-5.676399708E0,2.647199869E0,5.989999697E-2
9.342643255E0,-5.045199871E0,2.068199873E0,1.321000010E-1
9.362497942E0,-3.545699835E0,1.338699937E0,9.400999546E-1
9.382349505E0,-1.912400007E0,-1.363999993E-1,2.049200058E0
9.402202630E0,-9.147999883E-1,-2.415599823E0,3.128299952E0
9.422055755E0,4.959999770E-2,-3.603799820E0,2.845599890E0
9.441908880E0,2.196999937E-1,-5.139999866E0,3.798599958E0
9.461760442E0,1.534899950E0,-8.624300003E0,-7.594999671E-1
9.481613567E0,9.479800224E0,-1.969979858E1,-3.436399937E0
9.501465130E0,3.509299994E0,-1.251200008E1,-3.737399817E0
9.521318255E0,2.083199978E0,1.060500026E0,-4.430699825E0
9.541171380E0,2.210000008E-1,8.377099991E0,-4.361899853E0
9.561022942E0,-1.474799991E0,8.288100243E0,-4.315199852E0
9.580876067E0,-1.408199906E0,2.868499994E0,-2.140599966E0
9.600729192E0,-1.545399904E0,-2.889699936E0,6.538999677E-1
9.620580755E0,-3.257599831E0,-7.551199913E0,4.430299759E0
9.640433880E0,-3.116299868E0,-8.754300117E0,5.816199780E0
9.660287005E0,-8.450999856E-1,-5.320399761E0,3.047600031E0
9.680138567E0,2.994000018E-1,-2.965999842E-1,1.554499984E0
9.699991692E0,1.571699977E0,2.862399817E0,-7.750999928E-1
9.719844817E0,1.981999993E0,2.965699911E0,-1.019600034E0
9.739696380E0,1.032799959E0,1.779199958E0,7.760999799E-1
9.759549505E0,1.410999894E-1,6.146999598E-1,1.221799970E0
9.779402630E0,-6.743999720E-1,3.691000044E-1,3.951999843E-1
9.799255755E0,-1.213699937E0,6.179000139E-1,-8.172000051E-1
9.819113567E0,-1.120899916E0,6.403999925E-1,-1.097899914E0
9.838960442E0,-7.785999775E-1,3.518999815E-1,-1.125999928E0
9.858813567E0,-4.302999973E-1,2.349999994E-1,-1.060400009E0
9.878666692E0,3.460000083E-2,4.160999954E-1,-8.651999831E-1
9.898518255E0,4.933999777E-1,1.062999964E-1,1.298999935E-1
9.918371380E0,7.709999681E-1,-3.458999991E-1,1.439099908E0
9.938224505E0,8.429999948E-1,-6.211999655E-1,3.067399979E0
9.958076067E0,8.474999666E-1,-9.201999903E-1,3.541599989E0
9.977929192E0,3.965999782E-1,-1.841699958E0,1.330899954E0
9.997782317E0,-6.550999880E-1,-1.706299901E0,-1.355099916E0
1.001763388E1,-2.609200001E0,-1.233799934E0,-3.532500029E0
1.003748701E1,-3.170399904E0,-1.996999979E0,-3.699899912E0
1.005734013E1,-1.410499930E0,-4.005000114E0,-1.694700003E0
1.007719326E1,-3.616999984E-1,-5.028800011E0,3.878999949E-1
1.009704482E1,2.434999943E-1,-5.525399685E0,1.190299988E0
1.011689794E1,8.337999582E-1,-5.028599739E0,2.295999974E-1
1.013675107E1,2.476399899E0,-3.095799923E0,-4.447000027E-1
1.015660263E1,4.585299969E0,-1.470799923E0,2.920999825E-1
1.017645576E1,4.714699745E0,-9.972999692E-1,3.481999934E-1
1.019630888E1,3.080099821E0,-2.017099857E0,-1.276199937E0
1.021616201E1,5.400999784E-1,-2.829999924E0,-1.894599915E0
1.023601357E1,-2.122400045E0,-2.339999914E0,-1.593599916E0
1.025586669E1,-3.297099829E0,-1.331099987E0,3.644999862E-1
1.027571826E1,-2.099999905E0,-8.032999635E-1,1.982399940E0
1.029557138E1,-6.617999673E-1,-8.168999553E-1,1.139999986E0
1.031542451E1,1.700000018E-1,-7.759000063E-1,3.655000031E-1
1.033527763E1,3.625999987E-1,-8.560000062E-1,1.659999974E-2
1.035512919E1,1.397999972E-1,-7.436000109E-1,-4.066999853E-1
1.037498232E1,-2.909999900E-2,-5.218999982E-1,-1.597999930E-1
1.039483544E1,5.177000165E-1,-3.139999807E-1,2.935999930E-1
1.041468857E1,3.558000028E-1,7.471999526E-1,3.973999918E-1
1.043454013E1,5.936999917E-1,2.068199873E0,4.923999906E-1
1.045439794E1,4.957000017E-1,3.981699944E0,3.377999961E-1
1.047424638E1,8.619999886E-1,5.456299782E0,-3.999999899E-4
1.049409794E1,-2.117999941E-1,6.086199760E0,-2.813999951E-1
1.051395107E1,-1.956399918E0,5.954499722E0,-5.853999853E-1
1.053380419E1,-3.797599792E0,5.593599796E0,-7.149999738E-1
1.055365576E1,-4.966000080E0,5.481499672E0,-7.332999706E-1
1.057350888E1,-4.216300011E0,5.166800022E0,-1.227100015E0
1.059336201E1,-2.813400030E0,3.216499805E0,-9.168999791E-1
1.061321513E1,-7.114999890E-1,-4.341000021E-1,1.568300009E0
1.063306669E1,8.024999499E-1,-5.628999710E0,6.612299919E0
1.065291826E1,1.167599916E0,-1.150059986E1,7.460700035E0
1.067277294E1,4.399999976E-3,-1.227049923E1,2.762599945E0
1.069262451E1,2.597399950E0,-1.210019970E1,2.151399851E0
1.071247763E1,5.697400093E0,-1.375109959E1,5.764999986E-1
1.073233076E1,4.239799976E0,-1.154419994E1,-5.211299896E0
1.075218232E1,-3.237999976E-1,-3.047199965E0,-2.454699993E0
1.077203544E1,-2.633999825E0,5.196199894E0,-4.409199715E0
1.079188857E1,-2.529999971E0,9.132999420E0,-3.887399912E0
1.081174169E1,-6.183999777E-1,7.079999924E0,-1.333699942E0
1.083159326E1,1.687799931E0,1.946099997E0,2.804999948E-1
1.085144638E1,-4.549999908E-2,-2.971099854E0,3.264400005E0
1.087129794E1,-1.455899954E0,-5.504999638E0,4.123699665E0
1.089115107E1,-1.096899986E0,-4.873399734E0,3.417199850E0
1.091100419E1,-1.430099964E0,-3.023399830E0,2.554399967E0
1.093085576E1,-1.306499958E0,1.656499982E0,9.168999791E-1
1.095070888E1,6.147999763E-1,2.736999989E0,-8.517000079E-1
1.097056201E1,1.970699906E0,2.203899860E0,-1.142899990E0
1.099041357E1,2.437500000E0,8.628000021E-1,-1.363999993E-1
1.101026669E1,1.052600026E0,7.457999587E-1,7.804999948E-1
1.103011982E1,-1.196499944E0,7.276999950E-1,1.379899979E0
1.104997138E1,-2.210799932E0,4.500999749E-1,9.279999733E-1
1.106982451E1,-2.088700056E0,-4.259999990E-1,-1.209999993E-2
1.108967763E1,-1.239199996E0,-1.291499972E0,-3.906999826E-1
1.110952919E1,-2.649999969E-2,-1.862399936E0,-9.057999849E-1
1.112938232E1,4.666999876E-1,-5.963000059E-1,-1.137699962E0
1.114924169E1,2.011999935E-1,2.415899992E0,-6.898999810E-1
1.116908701E1,1.163499951E0,2.598299980E0,1.495999992E-1
1.118894013E1,1.413800001E0,1.239799976E0,9.053999782E-1
1.120879326E1,3.358999789E-1,3.477999866E-1,9.605999589E-1
1.122864638E1,-6.171999574E-1,-8.429999948E-1,7.743999958E-1
1.124849794E1,-6.852999926E-1,-1.947899938E0,5.077999830E-1
1.126835107E1,-6.626999974E-1,-2.127099991E0,2.003999949E-1
1.128820419E1,-1.157099962E0,-1.160200000E0,1.463999897E-1
1.130805576E1,-5.622999668E-1,-1.565599918E0,8.020000160E-2
1.132790888E1,-5.618999600E-1,-3.031599998E0,4.490000010E-1
1.134776200E1,-6.424999833E-1,-5.335899830E0,5.291000009E-1
1.136761513E1,8.380999565E-1,-7.470199585E0,6.861000061E-1
1.138746669E1,1.755699992E0,-7.314799786E0,2.540999949E-1
1.140731982E1,3.423399925E0,-5.327099800E0,3.851999938E-1
1.142717294E1,3.294799805E0,-3.190099955E0,8.493999839E-1
1.144702450E1,1.807099938E0,-9.103999734E-1,-7.479999661E-1
1.146687763E1,1.364699960E0,-8.622999787E-1,-1.534199953E0
1.148673076E1,2.112200022E0,-2.510399818E0,-2.287899971E0
1.150658232E1,1.701999903E0,-2.869599819E0,-3.800299883E0
1.152643544E1,8.964999914E-1,-2.142299891E0,-1.853500009E0
1.154628857E1,7.315999866E-1,-1.495299935E0,1.020599961E0
1.156614169E1,-1.755499959E0,2.087999880E-1,2.335500002E0
1.158599326E1,-1.883799911E0,2.997799873E0,2.420500040E0
1.160584638E1,-2.706699848E0,2.589799881E0,1.791399956E0
1.162569950E1,-2.011399984E0,2.732699871E0,1.337700009E0
1.164555107E1,-8.420999646E-1,1.786599994E0,-3.339999914E-1
1.166540419E1,-3.413999975E-1,1.392499924E0,-7.608000040E-1
1.168525732E1,4.151999950E-1,1.969899893E0,-6.800999641E-1
1.170510888E1,7.975999713E-1,2.338000059E0,-7.849999666E-1
1.172496200E1,1.051699996E0,3.228600025E0,-2.879000008E-1
1.174481513E1,8.039999604E-1,4.182699680E0,-3.276999891E-1
1.176466669E1,1.340000033E-1,3.563699961E0,-5.695999861E-1
1.178451982E1,-1.903999925E0,4.056600094E0,-2.642000020E-1
1.180437138E1,-2.461199999E0,2.504699945E0,1.762799978E0
1.182422607E1,-2.451299906E0,1.524399996E0,3.138299942E0
1.184408388E1,-1.811899900E0,1.266199946E0,3.304199934E0
1.186393076E1,-9.989999533E-1,-1.691399932E0,4.718199730E0
1.188378232E1,-1.947999954E0,-6.223399639E0,7.208899975E0
1.190363544E1,-1.976699948E0,-6.822799683E0,5.138700008E0
1.192348857E1,-1.765799999E0,-5.086599827E0,1.999499917E0
1.194334013E1,-2.032500029E0,-4.740900040E0,2.964299917E0
1.196319482E1,-1.165300012E0,-4.582499981E0,7.889999747E-1
1.198304638E1,-1.828999966E-1,-6.592000008E0,-3.690500021E0
1.200289950E1,-1.457299948E0,-5.824800014E0,-5.268499851E0
1.202275263E1,-4.591999948E-1,-4.801300049E0,-1.899999976E0
1.204260419E1,4.773299694E0,-3.255899906E0,-6.201999784E-1
1.206245576E1,3.406099796E0,-1.160200000E0,-4.669999704E-2
1.208230888E1,-6.870000064E-2,6.243999600E-1,-6.669999957E-1
1.210216200E1,-3.918299913E0,5.472999811E-1,-1.006299973E0
1.212201357E1,-3.801299810E0,2.288399935E0,-1.730000041E-2
1.214186669E1,-1.675999999E0,1.320699930E0,1.714999914E0
1.216171982E1,1.676499963E0,2.262300014E0,2.151900053E0
1.218157294E1,1.269999981E0,2.162199974E0,2.173699856E0
1.220142607E1,4.111999869E-1,2.155099869E0,8.816999793E-1
1.222127919E1,-3.023999929E-1,1.574899912E0,-1.047999978E0
1.224113076E1,-1.054000020E0,1.055899978E0,-1.490199924E0
1.226098232E1,5.829999968E-2,1.174000025E0,-6.983999610E-1
1.228083544E1,5.885999799E-1,2.045500040E0,-5.627999902E-1
1.230068857E1,3.879999816E-1,1.994199991E0,-2.606000006E-1
1.232054638E1,-5.397999883E-1,1.501099944E0,8.639999479E-2
1.234039326E1,-1.152499914E0,1.167999953E-1,3.107999861E-1
1.236024638E1,1.919000000E-1,-1.765999943E-1,-2.162400007E0
1.238009950E1,1.692199945E0,2.897000015E-1,-1.826499939E0
1.239995107E1,1.471599936E0,1.127599955E0,2.289999872E-1
1.241980419E1,5.669999868E-2,2.868700027E0,1.421999931E-1
1.243965732E1,1.204900026E0,3.111899853E0,1.299999952E0
1.245950888E1,1.706999987E-1,1.630299926E0,6.308000088E-1
1.247936200E1,1.812999994E-1,-2.719999850E-2,-1.487699986E0
1.249921513E1,2.305999994E-1,-1.032400012E0,-2.448299885E0
1.251906669E1,4.943999946E-1,-1.044799924E0,-1.817899942E0
1.253892450E1,6.141999960E-1,-5.020999908E-1,5.189999938E-1
1.255877294E1,3.922999799E-1,-1.238600016E0,1.532400012E0
1.257862450E1,-7.992999554E-1,-2.026399851E0,7.294999957E-1
1.259847763E1,-4.059799671E0,-3.726799965E0,-3.321000040E-1
1.261833076E1,-4.458199978E0,-3.129999876E0,-8.069999516E-2
1.263818388E1,-4.252099991E0,-4.029799938E0,-7.810999751E-1
1.265803544E1,-3.263499975E0,-3.981999874E0,4.337999821E-1
1.267788857E1,-3.762300014E0,-7.574800014E0,-1.135299921E0
1.269774169E1,6.965000033E-1,-6.105799675E0,1.247599959E0
1.271759482E1,2.708999813E-1,-6.965199947E0,1.813399911E0
1.273744638E1,8.068000078E-1,-4.308499813E0,-1.478599906E0
1.275729794E1,4.925999939E-1,-2.495800018E0,-1.939099908E0
1.277715263E1,8.129000068E-1,-7.048999667E-1,1.709999889E-2
1.279700419E1,1.147199988E0,-1.821999997E-1,-2.396899939E0
1.281685732E1,-6.202999949E-1,9.876999855E-1,2.483299971E0
1.283671044E1,-1.386299968E0,2.269899845E0,3.343699932E0
1.285656357E1,-3.407000005E-1,3.250499964E0,1.248899937E0
1.287641513E1,-3.186999857E-1,2.987999916E0,2.179100037E0
1.289626826E1,-7.702999711E-1,2.514600039E0,1.931099892E0
1.291611982E1,-6.421999931E-1,1.872799993E0,1.595600009E0
1.293597294E1,-1.858599901E0,1.483099937E0,2.129199982E0
1.295582607E1,-2.903499842E0,9.371999502E-1,2.404999971E0
1.297567919E1,-3.276700020E0,5.805999637E-1,9.174999595E-1
1.299553076E1,-2.932999849E0,-1.206000000E-1,1.584699988E0
1.301538388E1,-2.606600046E0,-1.149099946E0,1.645499945E0
1.303523700E1,-2.191299915E0,-1.787299991E0,2.412999868E-1
1.305508857E1,-2.758599997E0,-1.716599941E0,2.750000060E-1
1.307494169E1,-2.146600008E0,-1.606799960E0,1.982699990E0
1.309479482E1,1.597999930E-1,-1.296399951E0,2.734999895E0
1.311464638E1,1.649399996E0,-1.228199959E0,3.313299894E0
1.313449950E1,4.698999822E-1,-2.452499866E0,2.258699894E0
1.315435263E1,-1.679499984E0,-1.584599972E0,-9.675999880E-1
1.317420419E1,-1.265200019E0,-6.090999842E-1,-1.892199993E0
1.319405732E1,6.459999830E-2,6.909999847E-1,-6.438999772E-1
1.321390888E1,1.595399976E0,1.161800027E0,1.009500027E0
1.323376826E1,2.466199875E0,1.645099998E0,1.237800002E0
1.325361513E1,3.187599897E0,2.170099974E0,4.373999834E-1
1.327346669E1,3.112200022E0,2.267899990E0,-3.003999889E-1
1.329331982E1,2.405999899E0,2.424799919E0,-7.209999561E-1
1.331317294E1,1.502699971E0,2.169999838E0,-1.873099923E0
1.333302451E1,2.224999964E-1,1.787299991E0,-2.343299866E0
1.335287919E1,1.435000002E-1,1.000399947E0,-5.022999644E-1
1.337273076E1,-9.837999940E-1,-3.342999816E-1,1.155399919E0
1.339258388E1,-6.531999707E-1,1.833999902E-1,6.155999899E-1
1.341243544E1,6.768000126E-1,1.590999961E-1,4.301499844E0
1.343228857E1,4.459999874E-2,4.861999750E-1,2.481899977E0
1.345214169E1,-6.839999557E-2,1.002300024E0,-4.630999863E-1
1.347199326E1,6.518999934E-1,4.815999866E-1,-1.527999997E0
1.349184638E1,5.267999768E-1,4.765999913E-1,-7.226999998E-1
1.351169951E1,9.192000031E-1,4.948999882E-1,-1.588400006E0
1.353155263E1,1.181399941E0,-6.740000099E-2,-2.073699951E0
1.355140576E1,6.509999633E-1,-9.070000052E-2,-1.965199947E0
1.357125732E1,6.717000008E-1,-4.279999807E-2,-1.403699994E0
1.359111044E1,2.750999928E-1,-6.949999928E-2,-1.368999958E0
1.361096201E1,-2.101999968E-1,-2.055999935E-1,-2.505499840E0
1.363081669E1,-5.904999971E-1,-6.979999691E-2,-2.768499851E0
1.365066826E1,-1.158200026E0,-2.445999980E-1,-2.085899830E0
1.367052138E1,-3.445999920E-1,-2.226999998E-1,-9.096999764E-1
1.369037294E1,2.239999920E-2,-4.560000002E-1,-6.613000035E-1
1.371022607E1,-1.006999984E-1,-5.216999650E-1,-8.454999924E-1
1.373007919E1,-1.384000033E-1,-3.316999972E-1,-5.684999824E-1
1.374993076E1,-3.120000064E-1,-1.102999970E-1,-2.469999939E-1
1.376978388E1,-5.300999880E-1,2.144999951E-1,2.173999995E-1
1.378963701E1,-2.606999874E-1,3.828999996E-1,8.187999725E-1
1.380948857E1,1.252999902E-1,2.994000018E-1,2.100999951E-1
1.382934169E1,1.488199949E0,1.449999958E-1,-6.100999713E-1
1.384920107E1,1.592099905E0,2.807999849E-1,6.980999708E-1
1.386904794E1,7.073999643E-1,4.050000012E-1,1.145999953E-1
1.388889951E1,6.139999628E-1,7.109000087E-1,2.333999872E-1
