"Time (s),""Gyroscope x (rad/s)"",""Gyroscope y (rad/s)"",""Gyroscope z (rad/s)"""
1.753493820E-1,-1.152974248E0,1.761683464E0,2.226538211E-1
1.951208930E-1,-1.539640546E0,1.275449038E0,-8.521319181E-2
2.148907890E-1,-1.424801230E0,8.863393664E-1,-8.032641560E-2
2.346622990E-1,-6.661289334E-1,4.080459774E-1,2.648022771E-1
2.544321950E-1,2.415900975E-1,-1.753131598E-1,5.488462448E-1
2.742036530E-1,3.075616062E-1,4.886777997E-1,9.275715351E-1
2.939735490E-1,1.432436854E-1,1.231468081E0,1.022863746E0
3.137450590E-1,1.957765520E-1,7.837170362E-1,8.408312798E-1
3.335149550E-1,1.597365588E-1,-2.583884001E-1,6.306998134E-1
3.532864660E-1,9.132166207E-2,-9.559759498E-1,4.450022280E-1
3.730563090E-1,1.878355294E-1,-1.080588818E0,2.690782249E-1
3.928278200E-1,4.891359508E-1,-7.562289238E-1,9.559759498E-2
4.125977160E-1,8.232693672E-1,-2.437280566E-1,5.833591148E-2
4.323692260E-1,8.434273601E-1,6.035171151E-1,-1.298050433E-1
4.521391220E-1,1.200773001E0,1.113574505E0,-3.081724346E-1
4.719105800E-1,1.404796004E0,2.173394442E0,-1.065928489E-1
4.916804760E-1,1.215433359E0,2.324884653E0,-1.511846930E-1
5.114519870E-1,1.051115394E0,1.668834686E0,-3.008422852E-1
5.312218820E-1,1.016297102E0,9.290986657E-1,-4.126273096E-1
5.509933930E-1,8.336538076E-1,3.952181637E-1,-4.645493329E-1
5.707632370E-1,3.081724346E-1,4.636330605E-1,-9.252808690E-1
5.905347470E-1,2.721324563E-1,7.232431769E-1,-1.068830013E0
6.103046430E-1,7.298097610E-1,9.590302110E-1,-1.407850266E0
6.300761530E-1,9.063445926E-1,1.213753462E0,-2.447512150E0
6.498460490E-1,1.550788522E0,2.211266994E0,-2.501266718E0
6.696175070E-1,1.682731509E0,2.533183575E0,-1.779245377E0
6.893874030E-1,3.167243004E-1,3.293230295E0,-1.767028451E0
7.091589140E-1,-1.328898191E0,4.969395161E0,-1.887365341E0
7.289288090E-1,-2.089403152E0,3.265131235E0,-1.941730738E0
7.487002680E-1,-1.851783514E0,1.307213157E-1,-2.355274200E0
7.684701640E-1,-1.749161124E0,-1.486802220E0,-2.097496748E0
7.882416740E-1,-1.681967974E0,-2.126970053E0,-1.576444030E0
8.080115700E-1,-1.744885206E0,-1.673721433E0,-1.743205309E0
8.277830800E-1,-2.319081545E0,-4.520269856E-2,-2.287470341E0
8.475529240E-1,-2.132162333E0,-7.452336699E-2,-3.324688911E0
8.673244340E-1,-1.542083859E0,-1.623021126E0,-4.132839680E0
8.870943300E-1,-1.359440565E0,-2.858917952E0,-4.021665573E0
9.068658410E-1,-2.167591572E0,-2.112309933E0,-4.016778946E0
9.266357370E-1,-3.228633165E0,-5.876350403E-1,-4.730859280E0
9.464071950E-1,-3.315984249E0,5.699204803E-1,-4.769342899E0
9.661770910E-1,-2.658101797E0,6.016845703E-1,-4.212249756E0
9.859486010E-1,-2.101009130E0,2.980934680E-1,-3.726626396E0
1.005718497E0,-2.002051830E0,5.381564498E-1,-3.079128265E0
1.025490007E0,-2.336185455E0,2.425063610E0,-2.048629045E0
1.045259903E0,-2.881061077E0,3.792903423E0,-1.621646762E0
1.065031362E0,-3.138227701E0,4.617547035E0,-1.762752533E0
1.084801257E0,-3.154109716E0,5.216177464E0,-1.741372824E0
1.104572768E0,-2.899386406E0,5.958967686E0,-1.316833973E0
1.124342664E0,-2.813867807E0,2.813715219E0,1.524063945E-1
1.144114174E0,-2.909770966E0,-2.296785593E0,7.797465324E-1
1.163884018E0,-1.471836448E0,-5.656445622E-1,-1.127013192E-1
1.183655528E0,1.374406368E-2,-2.864873707E-1,-4.523324072E-1
1.203425424E0,3.038965166E-1,-1.040272832E0,-3.359660041E-3
1.223196934E0,-2.745758295E-1,-1.070204377E0,2.941229641E-1
1.242966830E0,-8.035695553E-1,-7.592831254E-1,-1.985253580E-2
1.262738289E0,-9.605573416E-1,-6.798729897E-1,-1.304158866E-1
1.282508184E0,-5.793886185E-1,-7.794411182E-1,2.901524492E-2
1.302279695E0,3.710896969E-1,-6.908682585E-1,-1.084253863E-1
1.322049591E0,1.317444801E0,-2.211267054E-1,-8.704573661E-2
1.341821049E0,1.384638071E0,3.487937748E-1,7.666133344E-2
1.361590945E0,6.754443645E-1,6.523848772E-1,3.662029207E-1
1.381362455E0,1.872246861E-1,-7.153021693E-1,9.862129092E-1
1.401132351E0,6.528429985E-1,-2.106812239E0,6.264238358E-1
1.420903809E0,2.006633282E-1,-1.460535765E0,-1.982657433E0
1.440673705E0,-1.010952219E-1,1.991362125E-1,-1.920961976E0
1.460445216E0,1.436560035E0,8.991671801E-1,2.269297540E-1
1.480215112E0,1.976549029E0,6.591041684E-1,-4.755446017E-1
1.499986622E0,1.503142357E0,7.482879162E-1,-4.682144225E-1
1.519756466E0,1.450762302E-1,7.317950130E-1,8.909206986E-1
1.539527976E0,-7.382088900E-1,-3.524588645E-1,1.066233873E0
1.559297872E0,-9.972081780E-1,-1.197260618E0,2.880144715E-1
1.579069382E0,-7.840224504E-1,-1.510014415E0,1.486496806E0
1.598839226E0,-1.105328083E0,-5.913001299E-1,2.097344160E0
1.618610737E0,-1.077839971E0,4.111002088E-1,1.497492075E0
1.638380632E0,-5.012001991E-1,8.667922616E-1,8.951966763E-1
1.658152143E0,-1.429077148E0,1.180767775E0,1.330119848E0
1.677921987E0,-1.785201073E0,4.428642690E-1,1.222610831E0
1.697693497E0,-1.551857471E0,9.529217333E-2,3.148917556E-1
1.717463393E0,-1.024085402E0,1.203369126E-1,-1.780619770E-1
1.737234903E0,-8.481613994E-1,3.426853120E-1,5.213581324E-1
1.757004747E0,-1.327065706E0,4.062134326E-1,9.532271624E-1
1.776776257E0,-1.749771953E0,-1.189930439E0,8.145648241E-1
1.796546153E0,-2.287622988E-1,-1.631573081E0,2.037175596E-1
1.816317612E0,-9.929322004E-1,-8.655705452E-1,-3.023693897E-2
1.836087507E0,-2.273267984E0,-1.735417008E0,-7.482878864E-2
1.855859018E0,-6.899519563E-1,-1.968149900E0,-1.291178346E0
1.875628862E0,3.600944579E-1,-7.812736630E-1,-2.581287861E0
1.895400372E0,1.872246861E-1,2.339545041E-1,-1.625311852E0
1.915170268E0,5.581616759E-1,9.559759498E-1,-6.933116168E-2
1.934941778E0,5.025745630E-1,1.706707239E0,-7.383615971E-1
1.954711622E0,1.085933685E0,1.668223858E0,-2.087112427E0
1.974483132E0,2.737053871E0,1.191763043E0,-1.580719948E0
1.994253028E0,2.812798977E0,7.586722970E-1,-1.716938972E0
2.014024487E0,1.676622987E0,-9.260444641E-1,-1.504364133E0
2.033794382E0,3.093941510E-1,-2.367033243E0,-1.541625738E0
2.053565841E0,-3.216110766E-1,-1.766570330E0,-2.121930599E0
2.073335737E0,2.373141646E-1,6.505523324E-1,-2.813409805E0
2.093107247E0,-2.861819267E-1,7.421793938E-1,-2.095053434E0
2.112877091E0,-9.037485123E-1,1.551551968E-1,-1.091431379E0
2.132648601E0,-8.102889061E-1,5.674771070E-1,-2.556395829E-1
2.152418497E0,-7.418739796E-1,2.706206083E0,4.804313779E-1
2.172189955E0,-5.054761171E-1,2.777064323E0,8.286142945E-1
2.191959851E0,-2.214321345E-1,2.737970114E0,1.951656938E-1
2.211731309E0,-1.157250166E0,7.635591030E-1,-1.938065648E0
2.231501205E0,-5.769452453E-1,1.521009684E0,-3.677147865E0
2.251272664E0,3.032856584E-1,9.236010313E-1,-4.237294674E0
2.271042559E0,-1.527423620E0,-1.093416572E0,-2.341224909E0
2.290814070E0,-1.645317078E0,-1.003011227E0,-6.668924689E-1
2.310583914E0,-8.848122358E-1,-3.353551328E-1,6.505523622E-2
2.330355424E0,-5.341859460E-1,6.181774139E-1,1.927223057E-1
2.350125268E0,1.206423342E-1,4.062134326E-1,3.756710514E-2
2.369896778E0,-7.125533223E-1,-6.010736823E-1,-3.503209054E-1
2.389666674E0,-2.566474676E0,-9.602518678E-1,3.185568452E-1
2.409438132E0,-3.733803988E0,-2.076880634E-1,4.950917065E-1
2.429208028E0,-3.031329632E0,9.718579650E-1,-1.702278614E0
2.448979487E0,-5.897729993E-1,1.690825224E0,-3.233061790E0
2.468749382E0,-5.525113344E-1,-9.162709117E-2,-3.095621109E0
2.488520841E0,-7.235485911E-1,3.426853120E-1,-4.045488834E0
2.508290737E0,-9.605573416E-1,-1.899735034E-1,-3.865899563E0
2.528062195E0,-1.415638566E0,-1.130067468E0,-3.090123653E0
2.547832091E0,-7.540909648E-1,-2.980934680E-1,-2.693072796E0
2.567603549E0,5.435013771E-1,2.076880634E-2,-1.910577536E0
2.587373445E0,1.909355879E0,3.066453338E-1,-7.084301114E-1
2.607144903E0,3.326521397E0,-7.922688723E-1,3.216110766E-1
2.626914747E0,3.831081390E0,-1.333479524E0,3.442124426E-1
2.646686257E0,3.676537037E0,-3.848337829E-1,7.418739796E-1
2.666456101E0,2.917864561E0,-8.887827396E-1,7.718055248E-1
2.686227612E0,2.431019306E0,-3.200381517E0,5.268557668E-1
2.705997455E0,2.579455376E0,-3.056832314E0,5.256340504E-1
2.725768966E0,2.577622652E0,-2.362757206E0,4.401154518E-1
2.745538809E0,2.476222038E0,-2.173394442E0,2.195995897E-1
2.765310320E0,2.675358295E0,-1.753131628E0,2.874036431E-1
2.785080164E0,2.704068184E0,-1.932109833E0,5.207473040E-1
2.804851622E0,2.457285881E0,-2.344431877E0,5.311316848E-1
2.824621518E0,2.156138182E0,-2.379250050E0,3.918585181E-1
2.844392976E0,1.826891422E0,-2.346264362E0,1.059819981E-1
2.864162872E0,1.364480019E0,-1.806275368E0,-1.072036922E-1
2.883934330E0,7.640172243E-1,-1.167329073E0,-1.389677525E-1
2.903704174E0,2.562504113E-1,-6.847597957E-1,-6.261184067E-2
2.923475684E0,-1.640124917E-1,-2.168507725E-1,1.053711548E-1
2.943245528E0,-4.859289825E-1,1.997470558E-1,3.680354655E-1
2.963017039E0,-7.547017932E-1,2.028012872E-1,5.543438792E-1
2.982786882E0,-8.255600929E-1,-4.459185153E-2,5.696150661E-1
3.002558341E0,-2.385358512E-1,-8.063183725E-2,6.142069101E-1
3.022328237E0,5.557183027E-1,1.337755471E-1,6.881194115E-1
3.042099695E0,8.360971808E-1,-1.557660550E-1,8.481613994E-1
3.061869591E0,9.729269743E-1,-9.651386738E-1,9.336800575E-1
3.081641049E0,1.248419046E0,-1.163053155E0,9.006943107E-1
3.101410893E0,5.850389600E-1,-4.789042473E-1,1.805053651E-1
3.121182403E0,1.248419046E0,-5.179984570E-1,-1.041952729E0
3.140952247E0,7.238540053E-2,2.461714447E-1,-5.392253995E-1
3.160723705E0,-1.176797271E0,-1.282168388E0,-7.469134927E-1
3.180493601E0,-3.808632791E-1,6.047387794E-2,-2.244863659E-1
3.200265059E0,-2.129108191E0,3.088596344E0,9.660549164E-1
3.220034955E0,-2.515774488E0,2.876632452E0,8.768712282E-1
3.239806414E0,-2.210350752E0,1.430604339E0,4.865398407E-1
3.259576309E0,-2.504779100E0,8.716790676E-1,9.214630723E-1
3.279347768E0,-2.841966867E0,1.194206357E0,9.923213720E-1
3.299117612E0,-2.964747190E0,1.673721433E0,5.219689608E-1
3.318889122E0,-2.788823128E0,1.538724303E0,1.374406368E-2
3.338658966E0,-2.658712626E0,8.545753360E-1,-3.939964995E-2
3.358430476E0,-2.569529057E0,8.643488884E-1,2.061609477E-1
3.378200320E0,-2.410708666E0,1.170383334E0,3.729222417E-1
3.397971830E0,-2.152931213E0,1.344474792E0,1.652341783E-1
3.417741674E0,-1.874384761E0,1.466033459E0,-7.238540053E-2
3.437513132E0,-1.513984919E0,1.254069448E0,-1.377460510E-1
3.457283028E0,-1.319735527E0,8.032641411E-1,-1.230857223E-1
3.477054487E0,-1.559187651E0,9.590302110E-1,-8.338065445E-2
3.496824382E0,-1.939134598E0,1.038440347E0,-1.194206402E-1
3.516595841E0,-1.764432311E0,6.035171151E-1,-3.203893900E-1
3.536365737E0,-1.220778227E0,3.494046330E-1,-4.101839364E-1
3.556137195E0,-7.956285477E-1,9.449806809E-1,-3.258870244E-1
3.575907091E0,-4.071297050E-1,1.167329073E0,-9.437590092E-2
3.595678549E0,-9.009996802E-2,6.413896084E-1,-8.246437646E-3
3.615448445E0,2.641914487E-1,4.886777997E-1,-1.175880954E-1
3.635219955E0,8.116632700E-1,6.554391384E-1,-2.953446507E-1
3.654989799E0,1.688229084E0,2.535016239E-1,-2.733541429E-1
3.674761309E0,2.506153584E0,-3.561239541E-1,-8.093725890E-2
3.694531153E0,3.032703876E0,-9.419264793E-1,1.750077456E-1
3.714302664E0,2.977727652E0,-9.193251133E-1,5.213581324E-1
3.734072559E0,3.046753407E0,-3.817795515E-1,6.777350307E-1
3.753844018E0,3.474957228E0,-2.144073844E-1,6.245913506E-1
3.773613914E0,3.368059158E0,-6.945333481E-1,1.224748790E-1
3.793385372E0,3.241002798E0,-1.516122937E0,-2.941229641E-1
3.813155268E0,3.448080063E0,-1.648676753E0,-2.611372173E-1
3.832926778E0,3.464572906E0,-2.145295620E0,-3.118375242E-1
3.852696674E0,3.294146538E0,-2.770192385E0,-4.150707126E-1
3.872468132E0,3.032703876E0,-3.017738104E0,-4.621059597E-1
3.892238028E0,2.395590305E0,-2.724989653E0,-6.577298045E-1
3.912009539E0,1.401741743E0,-2.142852068E0,-9.594883323E-1
3.931779382E0,6.161921620E-1,-1.718924165E0,-1.225817680E0
3.951550893E0,5.955760926E-2,-1.210699320E0,-1.143964171E0
3.971320789E0,-4.230117202E-1,-6.920899153E-1,-8.446490765E-1
3.991092299E0,-8.371661901E-1,-2.168507725E-1,-4.926483035E-1
4.010862143E0,-9.856020808E-1,2.504473627E-1,-1.298050433E-1
4.030633653E0,-6.221479177E-1,4.477510452E-1,-3.695625812E-2
4.050403549E0,1.435491070E-2,-5.326588154E-1,-9.498675168E-2
4.070175059E0,4.567610323E-1,-2.023736954E0,-2.171562016E-1
4.089944955E0,8.220477104E-1,-1.869192600E0,-4.144598544E-1
4.109716414E0,9.894198179E-1,-1.966928244E-1,-1.135412335E0
4.129486309E0,7.206470370E-1,1.065928459E0,-2.321677685E0
4.149257820E0,1.024848938E0,-2.776911736E0,-3.123109341E0
4.169027716E0,1.044396043E0,8.246437907E-1,1.866138428E-1
4.188799226E0,-1.610498786E0,3.690280914E0,1.410751700E0
4.208569122E0,-1.980672240E0,1.284000993E0,-4.260659516E-1
4.228340632E0,-1.596449256E0,3.726168275E-1,-2.351761982E-2
4.248110528E0,-2.813256979E0,1.733584523E0,7.015580535E-1
4.267882039E0,-3.940270185E0,3.094704866E0,6.606312990E-1
4.287651934E0,-4.234087944E0,4.208279610E0,6.600204706E-1
4.307423445E0,-4.144293308E0,4.334114075E0,6.178719997E-1
4.327193341E0,-4.086873531E0,3.276737452E0,4.364503622E-1
4.346964851E0,-3.628738165E0,1.798334360E0,2.281514555E-1
4.366734747E0,-2.678870678E0,8.197570443E-1,-5.650337040E-2
4.386506257E0,-2.463241577E0,3.176405728E-1,1.994416267E-1
4.406276153E0,-2.420482159E0,9.064973593E-1,6.117635369E-1
4.426047664E0,-1.919587493E0,1.229024649E0,4.987567961E-1
4.445817559E0,-1.817576051E0,5.399889946E-1,1.267508119E-1
4.465589070E0,-1.874995708E0,2.064663768E-1,-8.704573661E-2
4.485358966E0,-1.981893897E0,7.934905887E-1,-8.521319181E-2
4.505130476E0,-1.862167835E0,9.663603902E-1,-6.077930331E-2
4.524900424E0,-1.207950473E0,5.503733754E-1,-3.032856584E-1
4.544671934E0,-7.895200849E-1,1.252236813E-1,-6.094728708E-1
4.564441830E0,-6.575770974E-1,4.776825607E-1,-8.012788892E-1
4.584213341E0,-1.353026628E-1,1.255291104E0,-7.389724851E-1
4.603983237E0,4.537068009E-1,1.263232112E0,-7.621846795E-1
4.623754799E0,1.182447553E0,5.741963983E-1,-9.515473247E-1
4.643524695E0,2.150640488E0,-6.493306160E-1,-7.243121266E-1
4.663296205E0,3.037590742E0,-6.059604883E-1,-3.967452943E-1
4.683066101E0,3.098064661E0,-5.711421967E-1,1.475196183E-1
4.702837664E0,3.322245598E0,-7.598940134E-1,4.486673176E-1
4.722607559E0,3.675315142E0,-1.122126460E0,9.098569751E-1
4.742379070E0,3.354620457E0,-1.949824452E0,1.099830508E0
4.762149018E0,3.106616497E0,-2.819823742E0,1.579956412E0
4.781920528E0,2.851282358E0,-3.289565086E0,1.958070874E0
4.801690424E0,2.431630135E0,-3.875978470E0,1.890877724E0
4.821461987E0,2.501266718E0,-3.452661514E0,1.646538734E0
4.841231882E0,2.882435560E0,-3.062940836E0,1.468171358E0
4.861003445E0,2.540360928E0,-2.756142855E0,1.328898191E0
4.880773341E0,1.553842664E0,-2.794626236E0,6.783458591E-1
4.900544851E0,1.622257590E0,-2.833873034E0,-4.550812021E-2
4.920314799E0,1.928292036E0,-2.685895443E0,-3.594835997E-1
4.940086309E0,1.760309100E0,-2.130635262E0,-4.694361091E-1
4.959856257E0,1.211768270E0,-1.131899953E0,-3.576510847E-1
4.979627768E0,4.036173224E-1,-1.661504507E-1,-1.695101112E-1
4.999397716E0,-4.278984964E-1,2.040229887E-1,-1.255291104E-1
5.019169226E0,-7.834116220E-1,2.260134928E-2,-2.412846684E-2
5.038939174E0,-6.233696342E-1,-5.705313683E-1,2.947337925E-1
5.058710684E0,-3.161134422E-1,-8.441908956E-1,4.419479966E-1
5.078480632E0,2.495311052E-1,-8.393041492E-1,2.092151791E-1
5.098252195E0,1.304617047E0,-5.424323678E-1,1.786728203E-1
5.118022091E0,1.507418275E0,1.612636745E-1,1.048519373E0
5.137793653E0,1.822615504E0,1.980977654E0,1.462062955E0
5.157563653E0,2.208671093E0,-2.002357244E0,-1.112810969E0
5.177335112E0,-1.002705812E0,-1.527118087E-1,-2.657185495E-2
5.197105059E0,-1.314848781E0,-2.693836391E-1,-7.689039707E-1
5.216876622E0,-1.570182920E0,2.571208715E0,-1.701209545E-1
5.236646518E0,-2.865789890E0,3.750754833E0,4.456130862E-1
5.256418080E0,-2.410708666E0,1.838650227E0,4.297310412E-1
5.276188028E0,-2.813256979E0,1.355470061E0,1.405254126E0
5.295959591E0,-3.523672342E0,2.466601133E0,2.104063272E0
5.315729487E0,-3.564599276E0,3.153957129E0,2.058249950E0
5.335501049E0,-3.261618853E0,2.409792423E0,1.374711752E0
5.355270997E0,-3.323925257E0,1.842315316E0,6.667397618E-1
5.375042559E0,-3.282998562E0,1.944326878E0,4.489727318E-2
5.394812507E0,-2.685590029E0,1.931499004E0,-6.626165509E-1
5.414584070E0,-2.036259413E0,1.691436052E0,-8.189934492E-1
5.434354018E0,-2.020377398E0,1.360356808E0,-3.026748300E-1
5.454125580E0,-2.110782623E0,1.673721433E0,-6.566607952E-2
5.473895528E0,-2.028318405E0,2.160566807E0,9.193251282E-2
5.493667091E0,-1.621494055E0,1.028666735E0,-7.910472155E-2
5.513437039E0,-1.488329291E0,2.107423097E-1,-3.497100472E-1
5.533208601E0,-1.561020136E0,9.944593310E-1,-4.162923992E-1
5.552978549E0,-9.184088707E-1,1.113574505E0,-5.599942207E-1
5.572750112E0,-5.772506446E-2,6.713211536E-1,-9.381086826E-1
5.592520164E0,8.018897176E-1,9.901834130E-1,-1.197107911E0
5.612291674E0,1.404185176E0,1.181378603E0,-1.187945247E0
5.632061622E0,1.989376783E0,8.393041492E-1,-1.220930934E0
5.651833184E0,2.701013803E0,-1.484358907E-1,-1.184890985E0
5.671603237E0,3.691808224E0,1.612636745E-1,-1.053558826E0
5.691374747E0,4.257452488E0,1.527118124E-2,-1.524063945E-1
5.711144695E0,4.207363129E0,-4.935645759E-1,3.539859951E-1
5.730916257E0,4.199422359E0,-3.255968571E0,-1.853921413E-1
5.750686309E0,4.518895149E0,-4.149638176E0,-4.798205197E-1
5.770457820E0,5.166393280E0,-3.082488060E0,2.654131353E-1
5.790227872E0,4.847531319E0,-2.982919931E0,1.173132181E0
5.809999382E0,3.620949745E0,-4.057400227E0,1.555522561E0
5.829769434E0,2.256317139E0,-5.172196388E0,2.260440350E0
5.849540945E0,2.153694630E0,-4.283413887E0,2.993457079E0
5.869310997E0,2.944131136E0,-4.112376690E0,2.901829958E0
5.889082507E0,3.329575777E0,-5.525266171E0,1.955627441E0
5.908852559E0,3.102951288E0,-4.974892616E0,8.151756525E-1
5.928624070E0,2.662530422E0,-3.172893286E0,2.257080674E-1
5.948394122E0,1.978992462E0,-1.939440012E0,1.670667231E-1
5.968165632E0,1.099372387E0,-9.749122262E-1,3.552076817E-1
5.987935632E0,-2.629697323E-1,-1.197260618E-1,6.606312990E-1
6.007707247E0,-1.751604557E0,1.685938388E-1,8.909206986E-1
6.027477195E0,-2.621450901E0,7.440119386E-1,1.168856263E0
6.047248809E0,-2.286706686E0,8.765658140E-1,1.185349107E0
6.067018862E0,-1.088835239E0,1.881409585E-1,8.542698622E-1
6.086790372E0,2.596100792E-2,1.490467340E-1,5.073086619E-1
6.106560424E0,-4.114056230E-1,-3.799470067E-1,8.396095634E-1
6.126331987E0,-1.105938911E0,3.693946123E0,2.019155502E0
6.146102039E0,1.978381515E0,3.740370512E0,-1.862320542E0
6.165873549E0,2.125595808E0,-2.723767996E0,-1.037676811E0
6.185643601E0,-9.428427219E-1,-4.159869850E-1,1.186570764E0
6.205415164E0,1.365243644E-1,1.526507258E0,-5.192201585E-3
6.225185216E0,-2.686200857E0,4.920527458E0,1.005759954E0
6.244956726E0,-2.339850426E0,1.621188641E0,3.008422852E-1
6.264726726E0,-2.283041716E0,-3.121429384E-1,1.951656938E-1
6.284498341E0,-2.928096294E0,1.625464559E0,1.622715712E0
6.304268393E0,-3.337363958E0,4.138031960E0,1.931804419E0
6.324039955E0,-3.973866940E0,4.563181877E0,1.405254126E0
6.343809903E0,-3.618964672E0,1.853921413E0,8.561024070E-1
6.363581518E0,-2.816922188E0,2.166675329E0,4.511106908E-1
6.383351570E0,-2.329466105E0,2.483094215E0,-2.226538211E-1
6.403123132E0,-2.540819168E0,1.922336340E0,-5.636593103E-1
6.422893184E0,-3.071034670E0,2.598086119E0,-2.275405973E-1
6.442664747E0,-3.211529493E0,2.950545073E0,-4.184303805E-2
6.462434695E0,-2.766221762E0,2.547996521E0,-2.415900975E-1
6.482206309E0,-2.018544674E0,1.097692490E0,-3.875826001E-1
6.501976362E0,-1.564074397E0,-2.944283783E-1,-2.360924631E-1
6.521747924E0,-1.721673012E0,1.661504507E-1,-2.483094037E-1
6.541517976E0,-1.519482613E0,1.508792788E-1,-2.122694254E-1
6.561289539E0,-1.141368151E0,1.362189353E-1,-1.982199401E-1
6.581059591E0,-1.081505060E0,3.335226178E-1,-1.801999472E-2
6.600831101E0,-9.617789984E-1,7.751652002E-1,-1.560714692E-1
6.620601153E0,-4.022429287E-1,1.228413820E0,-5.563291311E-1
6.640372716E0,6.106945276E-1,9.596410394E-1,-5.164713860E-1
6.660142768E0,2.103605270E0,7.629482150E-1,-4.672981426E-2
6.679914330E0,3.159149408E0,9.846857786E-1,5.757235289E-1
6.699684382E0,3.285594702E0,-7.947123051E-1,8.347227573E-1
6.719455893E0,3.729680538E0,-1.020114899E0,5.708367825E-1
6.739225945E0,4.256230831E0,4.269822240E-1,4.413371384E-1
6.758997507E0,3.961191654E0,3.481829464E-1,4.046863019E-1
6.778767559E0,3.357674599E0,-9.633061290E-1,4.957025647E-1
6.798539070E0,3.192135096E0,-2.012130976E0,2.318165302E-1
6.818309070E0,3.842687368E0,-2.456827641E0,1.435491070E-2
6.838080684E0,4.228743076E0,-2.002357244E0,2.696890533E-1
6.857850737E0,3.964856863E0,-2.167286158E0,6.759024858E-1
6.877622299E0,3.327743053E0,-2.480650663E0,5.971031785E-1
6.897392247E0,2.890376568E0,-2.417122602E0,-4.245388508E-2
6.917163862E0,2.478665352E0,-2.345042706E0,-8.037222624E-1
6.936933914E0,1.818339586E0,-2.076269865E0,-9.417737722E-1
6.956705476E0,1.050504565E0,-1.400672793E0,-1.002858520E0
6.976475424E0,3.161134422E-1,-9.364288449E-1,-9.124531150E-1
6.996247039E0,-7.589777112E-1,-8.735115826E-2,-5.012001991E-1
7.016017091E0,-1.805969954E0,6.047387719E-1,2.043284029E-1
7.035788653E0,-1.921420097E0,8.179244995E-1,8.872556686E-1
7.055558601E0,-1.186570764E0,6.255075932E-1,9.874345660E-1
7.075330216E0,9.804098308E-2,-9.333745837E-1,9.376505762E-2
7.095100268E0,1.449998736E0,-1.536280870E0,-5.716003180E-1
7.114871778E0,1.639361382E0,-1.145338655E0,-3.808632791E-1
7.134641830E0,1.716938972E0,-1.105633497E0,-4.462239146E-1
7.154413393E0,1.882478595E0,1.732362866E0,-2.190345526E0
7.174183341E0,1.633863688E0,-2.348707676E0,-3.431587219E0
7.193954955E0,3.833066523E-1,-8.612946421E-2,-4.651601911E-1
7.213725007E0,-5.286883116E-1,2.731861591E0,1.244601250E0
7.233496518E0,-1.706401825E0,2.816769361E0,1.229330063E0
7.253266570E0,-1.738165855E0,5.192201734E-1,4.743228853E-1
7.273038080E0,-2.077186108E0,1.221694469E0,5.763344169E-1
7.292808080E0,-3.407000542E0,2.763014793E0,1.262926698E0
7.312579695E0,-3.911560535E0,4.121539116E0,1.485275149E0
7.332349643E0,-3.823598385E0,4.134366989E0,1.319124699E0
7.352121257E0,-3.694098711E0,3.339654684E0,9.501729012E-1
7.371891205E0,-3.386231661E0,2.612746477E0,5.464028716E-1
7.391662820E0,-2.973909855E0,3.029955149E0,2.293731421E-1
7.411432872E0,-2.727127552E0,3.739759684E0,-6.261184067E-2
7.431204382E0,-2.713688850E0,3.458158970E0,-1.976090819E-1
7.450974434E0,-2.711245537E0,2.551050901E0,1.536280811E-1
7.470745945E0,-2.272657156E0,2.587090969E0,4.236225784E-1
7.490515997E0,-2.397269964E0,2.932830334E0,2.409792393E-1
7.510287507E0,-2.337407112E0,2.847311735E0,-1.191152167E-2
7.530057559E0,-1.568350315E0,8.771766424E-1,-7.010999322E-1
7.549829070E0,-1.087613583E0,1.012173891E0,-8.684720993E-1
7.569599122E0,-1.232384324E0,2.010298252E0,-4.590517282E-1
7.589370632E0,-8.707627654E-1,1.706096411E0,-2.299840003E-1
7.609140684E0,-2.922904193E-1,1.138008475E0,-6.461237073E-1
7.628912195E0,6.627693027E-2,1.345696568E0,-1.066386580E0
7.648682247E0,4.384356141E-1,1.629740477E0,-1.118919492E0
7.668453757E0,8.965710402E-1,9.052756429E-1,-8.025006056E-1
7.688223809E0,1.702889442E0,1.600419879E-1,-1.902789176E-1
7.707995320E0,2.142088652E0,-1.318208337E0,-8.276980370E-2
7.727765372E0,2.594115496E0,-1.659672022E0,-2.648022771E-1
7.747536882E0,3.293535709E0,-8.875610828E-1,-6.406260729E-1
7.767306934E0,3.735178232E0,-4.685198367E-1,-8.458707333E-1
7.787078445E0,3.757168770E0,-1.572320819E0,-8.012788892E-1
7.806848497E0,3.229396820E0,-3.080655336E0,-7.163711190E-1
7.826620007E0,3.164036036E0,-3.709828138E0,-3.362714052E-1
7.846389955E0,3.525657654E0,-2.957264185E0,2.434226274E-1
7.866161570E0,3.716852903E0,-2.679786921E0,9.257390499E-1
7.885931518E0,3.368669987E0,-3.152735472E0,1.176186442E0
7.905703132E0,2.513483763E0,-3.605373144E0,7.052231431E-1
7.925473132E0,1.957612753E0,-3.168006659E0,3.338280320E-1
7.945244643E0,1.808565974E0,-2.959096909E0,2.929012477E-1
7.965014695E0,1.658297539E0,-2.414679289E0,4.010212123E-1
7.984786205E0,1.326607585E0,-1.539945960E0,5.580089688E-1
8.004556153E0,8.006680608E-1,-8.313631415E-1,6.759024858E-1
8.024327768E0,2.629697323E-1,-3.280249834E-1,6.575770974E-1
8.044097716E0,-1.908897758E-1,2.748812735E-2,5.219689608E-1
8.063869278E0,-6.160394549E-1,2.290677279E-1,3.252761662E-1
8.083639330E0,-9.330691695E-1,3.121429384E-1,2.092151791E-1
8.103410841E0,-1.237271070E0,4.049917459E-1,3.429907262E-1
8.123180789E0,-1.366770744E0,3.396310806E-1,3.490992188E-1
8.142952403E0,-1.032026410E0,-8.478559852E-1,-1.047603041E-1
8.162722351E0,6.627693027E-2,-1.843536973E0,-6.992673874E-1
8.182493914E0,1.595991135E0,-1.114796281E0,-5.012001991E-1
8.202263966E0,2.606943369E0,-1.061041713E0,-2.901524492E-2
8.222035476E0,3.352177143E0,3.487937748E-1,-7.096518278E-1
8.241805424E0,6.894938350E-1,4.740174711E-1,-3.268032894E-2
8.261576987E0,-1.078450799E0,-2.483705044E0,-1.181836724E0
8.281347039E0,5.135698318E-1,-3.299949646E0,-1.252694964E0
8.301118549E0,-1.772373319E0,3.932787418E0,1.122431874E0
8.320888497E0,-2.997732878E0,3.918737888E0,4.150707126E-1
8.340660059E0,-1.384485364E0,6.981984377E-1,-3.142809272E-1
8.360430007E0,-1.757712960E0,-4.416425824E-1,6.447492838E-1
8.380201622E0,-2.909770966E0,9.791881442E-1,1.181073189E0
8.399971570E0,-3.316595078E0,2.771566629E0,8.909206986E-1
8.419743132E0,-3.118680716E0,2.901677132E0,5.164713860E-1
8.439513080E0,-2.980629206E0,2.089097738E0,2.874036431E-1
8.459284695E0,-2.715521574E0,1.338366389E0,1.359135211E-1
8.479054695E0,-2.261051178E0,6.762079000E-1,2.290677279E-2
8.498826205E0,-2.008771181E0,4.324798584E-1,-5.100574717E-2
8.518596153E0,-1.990445852E0,6.493306160E-1,4.367557913E-2
8.538367716E0,-1.904316306E0,9.254335761E-1,1.432436854E-1
8.558137664E0,-1.782757759E0,1.172215939E0,5.772506446E-2
8.577909226E0,-1.813910961E0,1.296217918E0,-3.878879920E-2
8.597679174E0,-1.959292531E0,1.134954214E0,-2.168507688E-2
8.617450737E0,-2.117501974E0,7.751652002E-1,2.901524492E-2
8.637220789E0,-2.167591572E0,-2.870982140E-2,1.194206402E-1
8.656992247E0,-1.953184128E0,-3.970507085E-1,-4.611896724E-2
8.676762299E0,-1.222610831E0,-5.405998230E-1,-4.022429287E-1
8.696533809E0,-9.104678631E-1,-3.420744836E-2,-4.309527278E-1
8.716303757E0,-7.895200849E-1,7.189671993E-1,-4.352286756E-1
8.736075320E0,-4.193466306E-1,4.391991794E-1,-6.027535200E-1
8.755845268E0,7.299624383E-2,5.790832043E-1,-6.387935281E-1
8.775616830E0,9.497147799E-1,5.008947253E-1,-4.456130862E-1
8.795386778E0,2.126817465E0,3.976615667E-1,-1.102579311E-1
8.815158341E0,2.770650387E0,-2.620534599E-1,2.648022771E-1
8.834928289E0,2.771872044E0,-1.010341406E0,5.519005060E-1
8.854699851E0,3.160981894E0,-3.848337829E-1,7.406523228E-1
8.874469799E0,3.477400780E0,-1.380514801E-1,1.017976999E0
8.894241362E0,3.266047478E0,-8.820634484E-1,1.101052165E0
8.914011309E0,2.800581932E0,-1.802610278E0,1.104106426E0
8.933782872E0,2.468891859E0,-2.097038746E0,7.846332788E-1
8.953552872E0,2.417580843E0,-2.855252743E0,1.719534993E-1
8.973324330E0,2.735221386E0,-3.207100868E0,1.618745178E-2
8.993094278E0,3.190913439E0,-2.886405945E0,5.238015056E-1
9.012865841E0,3.308806896E0,-2.895568609E0,1.071731567E0
9.032635789E0,2.885489702E0,-3.157011271E0,1.060736299E0
9.052407351E0,1.965553761E0,-3.012240648E0,4.663818777E-1
9.072177299E0,1.460383058E0,-2.558839083E0,1.007897966E-2
9.091948862E0,1.277739763E0,-2.086654186E0,-1.976090819E-1
9.111718809E0,9.845330715E-1,-1.326760292E0,-3.234436214E-1
9.131490320E0,5.734328628E-1,-5.002838969E-1,-4.199574888E-1
9.151260268E0,2.977880239E-1,2.321219631E-2,-4.596625566E-1
9.171031830E0,2.244863659E-1,2.742704153E-1,-5.079194903E-1
9.190801778E0,1.756185889E-1,1.753131598E-1,-5.703786016E-1
9.210573341E0,1.322484314E-1,-3.298575059E-2,-4.633276463E-1
9.230343237E0,-5.344913527E-2,-1.698155403E-1,-2.751866877E-1
9.250114799E0,-2.684673667E-1,-2.351761907E-1,-3.329117596E-2
9.269884747E0,-3.717005551E-1,-3.261924386E-1,1.707318127E-1
9.289656309E0,-2.336490750E-1,-1.869192570E-1,2.965663373E-1
9.309426205E0,3.258870244E-1,-7.818844914E-2,4.089622498E-1
9.329197768E0,1.624701023E0,-7.116370797E-1,1.554606259E-1
9.348967716E0,2.208671093E0,-3.420744538E-1,-1.517802715E0
9.368739278E0,1.208714008E0,-7.806627750E-1,-3.222677469E0
9.388509174E0,-5.781669021E-1,-3.017585576E-1,-1.099372387E0
9.408280737E0,-1.678913713E0,1.346307397E0,-9.515473247E-1
9.428050684E0,-3.619270027E-1,7.207997441E-1,3.668137789E-1
9.447822195E0,-2.358175755E0,3.389133215E0,1.181073189E0
9.467592143E0,-2.112004280E0,1.464200854E0,7.421794534E-2
9.487363705E0,-2.014268875E0,5.699204803E-1,4.581354558E-3
9.507133601E0,-2.763167620E0,1.062263370E0,1.248266339E0
9.526905164E0,-3.220081329E0,2.301672459E0,1.424190402E0
9.546675112E0,-3.180376291E0,3.254136086E0,1.239103675E0
9.566446622E0,-3.148612261E0,3.312166452E0,1.207339644E0
9.586216570E0,-3.151055574E0,2.169118643E0,1.271478534E0
9.605988080E0,-2.953140974E0,1.034775257E0,1.234216928E0
9.625758028E0,-2.655658484E0,6.279509664E-1,9.428427219E-1
9.645529591E0,-2.520050287E0,7.574505806E-1,5.647283196E-1
9.665299487E0,-2.488286257E0,1.213753462E0,3.600944579E-1
9.685071049E0,-2.281208992E0,1.653563499E0,1.065928489E-1
9.704840997E0,-2.019155502E0,1.555827975E0,-1.939440072E-1
9.724612507E0,-1.813910961E0,1.380514860E0,-1.915006191E-1
9.744382455E0,-2.021599054E0,1.472752690E0,1.035386100E-1
9.764153966E0,-2.279376507E0,1.051268101E0,1.969982386E-1
9.783923914E0,-1.587897420E0,4.495835900E-1,-4.001049697E-2
9.803695476E0,-9.208522439E-1,6.908682585E-1,-2.287622988E-1
9.823465372E0,-9.086353183E-1,1.351194143E0,-2.147128135E-1
9.843236934E0,-6.985038519E-1,1.138008475E0,-3.503209054E-1
9.863006882E0,-4.358395338E-1,1.048213840E0,-5.441122055E-1
9.882778393E0,-2.855710983E-1,1.411057115E0,-6.058077812E-1
9.902548341E0,2.024958730E-1,1.595533013E0,-7.267554998E-1
9.922319851E0,1.241088867E0,1.357302666E0,-6.595623493E-1
9.942089799E0,2.139034271E0,6.694886088E-1,-8.215895295E-2
9.961861362E0,2.547691107E0,-7.910472155E-1,3.124483824E-1
9.981631257E0,3.146321535E0,-1.192373872E0,3.054236295E-4
1.000140282E1,4.300211906E0,-1.458092451E0,-1.004843712E-1
1.002117272E1,5.044223785E0,-2.296785593E0,2.855710983E-1
1.004094428E1,3.845741749E0,-1.222305417E0,3.936910629E-1
1.006071423E1,2.489049911E0,-5.399889946E-1,3.741439581E-1
1.008048574E1,2.257538795E0,-1.805053592E0,3.197785318E-1
1.010025568E1,3.118833303E0,-2.939549685E0,6.514685750E-1
1.012002725E1,4.022276402E0,-2.868691444E0,9.532271624E-1
1.013979714E1,4.217747688E0,-3.277348280E0,8.707627654E-1
1.015956870E1,3.468238115E0,-3.034841776E0,5.402944088E-1
1.017933860E1,2.404142141E0,-2.690782070E0,2.220429778E-1
1.019911016E1,2.318623543E0,-3.018348932E0,-1.334701329E-1
1.021888011E1,2.156138182E0,-2.516690731E0,-3.179459870E-1
1.023865162E1,1.548345089E0,-1.543000221E0,-3.741439581E-1
1.025842157E1,1.070051670E0,-1.053100705E0,-1.786728203E-1
1.027819308E1,6.497887969E-1,-4.459185004E-1,-9.132166207E-2
1.029796303E1,1.059819981E-1,4.764608666E-2,-7.971556485E-2
1.031773459E1,-5.812211633E-1,1.356080920E-1,-1.679829881E-2
1.033750449E1,-1.271478534E0,-7.513421029E-2,1.652341783E-1
1.035727605E1,-1.786422849E0,-4.520269856E-2,6.026008129E-1
1.037704605E1,-1.856059432E0,-5.497625470E-2,1.119988441E0
1.039681751E1,-1.286749721E0,-7.550072074E-1,1.127929449E0
1.041658746E1,1.169772521E-1,-7.757759839E-2,6.655181050E-1
1.043635897E1,1.832999945E0,1.270562261E-1,2.061609477E-1
1.045612891E1,1.325996637E0,-6.853706241E-1,-1.229482770E0
1.047590042E1,1.193442822E0,-3.261924386E-1,-2.044353008E0
1.049567037E1,1.003469348E0,-1.674332380E0,-1.054169655E0
1.051544188E1,-5.415160656E-1,1.241241574E0,-3.210002482E-1
1.053521183E1,-1.272089362E0,2.786226988E0,1.847812980E-1
1.055498339E1,-2.201188087E0,2.659170866E0,7.482878864E-2
1.057475329E1,-1.881714940E0,6.981984377E-1,-3.997995257E-1
1.059452485E1,-2.550592661E0,8.741224408E-1,-9.254335612E-2
1.061429475E1,-3.328201294E0,2.334047318E0,3.399364948E-1
1.063406631E1,-3.419828415E0,3.262687922E0,3.368822634E-1
1.065383621E1,-3.228022337E0,2.942604065E0,2.965663373E-1
1.067360777E1,-3.069201946E0,1.810551286E0,2.764083743E-1
1.069337766E1,-2.932983160E0,1.712204814E0,1.328592747E-1
1.071314923E1,-2.675205469E0,1.891183138E0,-3.729222417E-1
1.073291923E1,-2.407654524E0,1.527729034E0,-9.216157794E-1
1.075269068E1,-2.314805746E0,1.393342614E0,-8.336538076E-1
1.077246063E1,-2.236006498E0,1.677386522E0,-3.967452943E-1
1.079223214E1,-2.301367044E0,1.844147921E0,-3.558185399E-1
1.081200209E1,-2.413151979E0,2.740413427E0,-2.776300907E-1
1.083177360E1,-2.571972370E0,3.470986843E0,-1.524063945E-1
1.085154355E1,-2.460187435E0,2.531351089E0,-2.739650011E-1
1.087131506E1,-1.868276358E0,7.238540053E-1,-3.771981895E-1
1.089108506E1,-1.364938259E0,8.612946421E-2,-6.247440577E-1
1.091085652E1,-9.342908859E-1,5.179984570E-1,-8.434273601E-1
1.093062641E1,-4.065188468E-1,7.702783942E-1,-8.342646360E-1
1.095039798E1,7.727217674E-2,8.722898960E-1,-9.912523627E-1
1.097016787E1,5.856497884E-1,7.611156702E-1,-1.065775752E0
1.098993943E1,1.272853017E0,1.710372269E-1,-8.929060102E-1
1.100970933E1,2.266701460E0,-1.893626451E-1,-6.198572516E-1
1.102948089E1,3.184194088E0,2.626643144E-2,-2.189887464E-1
1.104925079E1,3.716242075E0,3.035911024E-1,5.506787896E-1
1.106902230E1,3.991123199E0,6.438329816E-1,1.171299577E0
1.108879225E1,3.525046825E0,6.352811307E-2,1.199398637E0
1.110856376E1,2.514094591E0,-1.180767775E0,1.572626233E0
1.112833371E1,1.889808655E0,-1.725643516E0,2.259218693E0
1.114810522E1,1.765195847E0,-2.657185555E0,2.142546654E0
1.116787516E1,2.189734697E0,-3.933398247E0,2.177975893E0
1.118764667E1,2.892819881E0,-3.503361702E0,2.150487661E0
1.120741657E1,2.938022614E0,-3.115473747E0,1.918976665E0
1.122718813E1,2.454231501E0,-3.154567957E0,1.638597727E0
1.124695803E1,1.894695520E0,-3.343319654E0,1.115101695E0
1.126672954E1,1.687007427E0,-3.064162493E0,5.531222224E-1
1.128649949E1,1.541014910E0,-2.533794403E0,3.637595475E-1
1.130627100E1,1.423732281E0,-2.117196560E0,3.344388604E-1
1.132604094E1,1.066997409E0,-2.192330837E0,3.106158376E-1
1.134581246E1,6.749862432E-2,-2.015185118E0,4.321744442E-1
1.136558235E1,-1.063179612E0,-1.182600260E0,4.749337435E-1
1.138535391E1,-1.449235082E0,-3.921639323E-1,6.636855602E-1
1.140512381E1,-1.426022887E0,-6.059604883E-1,1.112658262E0
1.142489532E1,-1.044854283E0,-1.155722976E0,1.276976228E0
1.144466527E1,8.953493834E-1,-8.594620824E-1,6.478035450E-1
1.146443678E1,2.377875566E0,-1.030499339E0,2.250972092E-1
1.148420667E1,2.465226889E0,-1.678608298E0,3.570402265E-1
1.150397824E1,2.934357405E0,1.730530262E0,-1.117086887E0
1.152374813E1,3.878879920E-2,-1.228413820E0,3.069507480E-1
1.154351964E1,-1.116323352E0,-9.975135922E-1,-5.323534012E-1
1.156328959E1,2.134911120E-1,1.802610278E0,-9.515473247E-1
1.158306110E1,-2.806537628E0,5.053691864E0,1.456870735E-1
1.160283105E1,-2.973909855E0,2.717201233E0,1.505738497E-1
1.162260256E1,-2.681313992E0,7.427902818E-1,1.193900943E0
1.164237246E1,-3.099133492E0,1.459924936E0,1.732668281E0
1.166214397E1,-3.661723852E0,3.339043856E0,1.611109614E0
1.168191391E1,-3.488243341E0,2.859528780E0,7.186617851E-1
1.170168542E1,-3.104631186E0,1.947381020E0,1.915006191E-1
1.172145537E1,-3.127843380E0,1.716480851E0,1.731752008E-1
1.174122688E1,-2.975742340E0,1.629129648E0,-1.420219839E-1
1.176099678E1,-2.470571756E0,1.891793966E0,-3.594835997E-1
1.178076829E1,-2.240282297E0,1.861862421E0,-1.976090819E-1
1.180053824E1,-2.222567797E0,1.783063173E0,-3.875826001E-1
1.182030975E1,-2.320303202E0,1.851478100E0,-6.229115129E-1
1.184007964E1,-2.404600143E0,1.419609070E0,-5.146388412E-1
1.185985120E1,-2.217680931E0,4.178195298E-1,-3.680354655E-1
1.187962110E1,-1.788255334E0,-1.545443535E-1,-4.688252807E-1
1.189939261E1,-1.361883998E0,3.878880143E-1,-4.822639227E-1
1.191916256E1,-1.012479305E0,8.154810667E-1,-2.745758295E-1
1.193893407E1,-7.314895988E-1,1.372573733E0,-3.545968235E-1
1.195870397E1,-3.680354655E-1,1.596754789E0,-5.115845799E-1
1.197847553E1,2.428117841E-1,1.141673565E0,-3.338280320E-1
1.199824542E1,1.131136417E0,5.570927262E-1,1.627907902E-1
1.201801693E1,2.192788839E0,-2.455606014E-1,5.628957748E-1
1.203778688E1,2.958180666E0,-6.542174220E-1,7.986828089E-1
1.205755839E1,3.071187258E0,-5.436540768E-2,1.017366052E0
1.207732834E1,3.215347290E0,2.809897363E-1,8.732061386E-1
1.209709985E1,3.450523376E0,3.909422457E-2,8.426637650E-1
1.211686975E1,3.343625069E0,-9.590301663E-2,8.884773254E-1
1.213664131E1,3.197021723E0,-5.296045542E-1,9.929322004E-1
1.215641121E1,3.162814379E0,-1.307213187E0,4.224008918E-1
1.217618272E1,3.156095028E0,-2.090930223E0,-3.802524209E-1
1.219595266E1,3.406542540E0,-1.056154966E0,-2.446443290E-1
1.221572417E1,3.656989813E0,-4.111002088E-1,3.329117596E-2
1.223549407E1,3.689975500E0,-1.166107416E0,1.007897966E-2
1.225526558E1,3.396768808E0,-1.508181930E0,-3.362714052E-1
1.227503553E1,2.263647318E0,-1.207645059E0,-1.099983215E0
1.229480704E1,1.334548593E0,-8.612946272E-1,-1.518413544E0
1.231457699E1,5.642701387E-1,-7.995990515E-1,-1.258803487E0
1.233434850E1,-4.034646153E-1,-5.008947253E-1,-7.872294188E-1
1.235411839E1,-1.387539506E0,-4.477510452E-1,5.467082933E-2
1.237388990E1,-2.394826651E0,-6.316160560E-1,7.534800768E-1
1.239365985E1,-2.911603451E0,-5.241069198E-1,8.249492049E-1
1.241343136E1,-1.108993173E0,-1.612636745E-1,5.085303187E-1
1.243320131E1,2.253873587E0,-1.618745178E-1,-1.047603041E-1
1.245297282E1,1.919129372E0,-2.333436489E0,-1.134190679E0
1.247274272E1,1.965553761E0,-2.626032352E0,-1.074938416E0
1.249251423E1,1.277739763E0,2.082989216E-1,-1.752368093E0
1.251228417E1,8.690829277E-1,-3.106311083E0,-4.333808422E0
1.253205568E1,2.099329233E0,-2.243642092E0,-1.995485306E0
1.255182558E1,-1.702736735E0,5.037199020E0,2.177975893E0
1.257159714E1,-1.300188422E0,1.449540496E0,1.016755223E0
1.259136704E1,-7.870767117E-1,-1.786117435E0,-3.741439581E-1
1.261113855E1,-2.367338657E0,-1.527118124E-2,-6.872031838E-2
1.263090850E1,-3.243293524E0,1.527118206E0,2.696890533E-1
1.265068001E1,-3.764346123E0,2.150182247E0,3.851391971E-1
1.267044990E1,-3.557269096E0,1.928444743E0,9.214630723E-1
1.269022141E1,-3.202977657E0,1.944326878E0,1.206117868E0
1.270999131E1,-3.092414141E0,2.165453434E0,1.146865726E0
1.272976287E1,-2.787601471E0,2.010298252E0,8.787037730E-1
1.274953277E1,-2.270824671E0,1.581483603E0,4.193466306E-1
1.276930428E1,-1.726559758E0,8.747332692E-1,1.835595965E-1
1.278907423E1,-1.406475782E0,6.395570636E-1,1.640124917E-1
1.280884574E1,-1.452289343E0,5.369347334E-1,1.114796251E-1
1.282861563E1,-1.482831717E0,-7.941014133E-3,-5.192201585E-3
1.284838714E1,-1.523147583E0,1.374406368E-1,-7.360709459E-2
1.286815709E1,-1.768708229E0,3.952181637E-1,-7.299624383E-2
1.288792860E1,-1.601336122E0,-1.924168915E-1,4.795150831E-2
1.290769850E1,-1.184738278E0,-5.204418898E-1,9.681928903E-2
1.292747001E1,-1.141978979E0,1.924168915E-1,1.130067464E-2
1.294723996E1,-1.441294074E0,1.088529825E0,-1.127013192E-1
1.296701147E1,-1.350888729E0,8.796200752E-1,-2.745758295E-1
1.298678136E1,-7.033905983E-1,4.495835900E-1,-3.503209054E-1
1.300655287E1,-4.822639227E-1,4.941754341E-1,-3.307738006E-1
1.302632277E1,-4.773771465E-1,4.691306949E-1,-4.657710493E-1
1.304609428E1,-1.811162084E-1,-1.197260618E-1,-5.948125124E-1
1.306586423E1,4.734066129E-2,-4.642439261E-2,-6.766660213E-1
1.308563574E1,5.868715048E-1,7.696675509E-2,-7.078192830E-1
1.310540563E1,1.236202121E0,-1.264453828E-1,-5.850389600E-1
1.312517714E1,2.051683187E0,-5.454866290E-1,-4.016320705E-1
1.314494704E1,2.639929056E0,-7.782194018E-1,-8.826743066E-2
1.316471855E1,2.861055851E0,-5.986303091E-1,2.971771955E-1
1.318448850E1,3.074241638E0,-3.103103936E-1,4.376720488E-1
1.320426001E1,3.201297760E0,-7.568397522E-1,6.300889254E-1
1.322402990E1,3.029649734E0,-7.568397522E-1,7.321004272E-1
1.324380141E1,2.505542755E0,-7.989882231E-1,8.609892130E-1
1.326357131E1,2.007091284E0,-1.662726283E0,1.077229142E0
1.328334282E1,2.084058046E0,-2.666348219E0,1.041800022E0
1.330311272E1,2.577622652E0,-3.023235798E0,1.000262380E0
1.332288423E1,2.905647755E0,-2.838759899E0,1.072342396E0
1.334265412E1,2.905036926E0,-2.547233105E0,8.890882134E-1
1.336242568E1,2.683910131E0,-2.116585732E0,5.189147592E-1
1.338219558E1,2.094442606E0,-1.871025205E0,1.267508119E-1
1.340196709E1,1.432284117E0,-1.735417008E0,-6.566607952E-2
1.342173699E1,9.374978542E-1,-1.272394896E0,-2.061609477E-1
1.344150850E1,4.585935771E-1,-6.273401380E-1,-3.106158376E-1
1.346127839E1,-2.596100792E-2,9.162709117E-3,-2.195995897E-1
1.348104990E1,-4.315635860E-1,3.823903799E-1,-1.801999472E-2
1.350081980E1,-8.322793841E-1,3.964398801E-1,7.910472155E-2
1.352059131E1,-1.154806733E0,7.696675509E-2,2.391466945E-1
1.354036120E1,-1.400367379E0,-4.874561131E-1,4.297310412E-1
1.356013272E1,-1.156028390E0,-1.073869467E0,3.796415627E-1
1.357990261E1,-2.596100792E-2,-9.981244206E-1,1.823379099E-1
1.359967412E1,1.219098449E0,2.388412803E-1,1.676775664E-1
1.361944402E1,1.611262321E0,3.280249834E-1,2.745758295E-1
1.363921553E1,1.038287640E0,-1.799556017E0,1.313321572E-2
1.365898542E1,1.208103180E0,-1.852699757E0,-8.758022785E-1
1.367875693E1,8.599202037E-1,-1.215586066E-1,-1.809176922E0
1.369852683E1,3.472666740E-1,-9.077190161E-1,-7.249229550E-1
1.371829834E1,-3.894151151E-1,9.223793745E-1,5.012001991E-1
1.373806824E1,-1.190846682E0,1.684105873E0,8.414421082E-1
1.375783975E1,-1.958681703E0,1.619356036E0,5.653391480E-1
1.377760964E1,-2.275711536E0,9.205468297E-1,4.743228853E-1
1.379738110E1,-2.458965540E0,7.409577370E-1,7.797465324E-1
1.381715100E1,-2.495005608E0,1.143506050E0,9.104678631E-1
1.383692251E1,-2.418038845E0,1.717091680E0,6.972821355E-1
1.385669240E1,-2.812035322E0,1.957765460E0,4.486673176E-1
1.387646391E1,-3.071645498E0,1.903400064E0,2.128802687E-1
1.389623381E1,-2.555479527E0,1.422052383E0,-2.901524492E-2
1.391600532E1,-2.049087048E0,7.684458494E-1,5.039490014E-2
1.393577522E1,-2.025874853E0,6.688777208E-1,3.448232710E-1
1.395554673E1,-1.777870893E0,1.009119630E0,2.556395829E-1
1.397531662E1,-1.361883998E0,1.116017938E0,5.161659420E-2
1.399508808E1,-1.275754452E0,6.462764144E-1,1.053711548E-1
1.401485798E1,-1.511541486E0,4.874561131E-1,1.420219839E-1
1.403462949E1,-1.677081108E0,7.745543122E-1,4.611896724E-2
1.405439938E1,-1.699682474E0,9.498674870E-1,-6.383354217E-2
1.407417089E1,-1.732057452E0,5.332696438E-1,-2.764083743E-1
1.409394079E1,-1.449235082E0,3.127537966E-1,-4.828747511E-1
1.411371230E1,-9.978190064E-1,4.471401870E-1,-4.779879749E-1
1.413348214E1,-5.054761171E-1,8.545753360E-1,-2.501419485E-1
1.415325365E1,-3.943018913E-1,1.010341406E0,-2.244863659E-1
1.417302355E1,-2.617480457E-1,7.091936469E-1,-3.350497186E-1
1.419279506E1,-7.543963939E-2,7.739434838E-1,-2.880144715E-1
1.421256496E1,4.158342779E-1,1.094638348E0,-2.092151791E-1
1.423233647E1,1.125638843E0,6.835380793E-1,-2.831276953E-1
1.425210636E1,2.002815485E0,1.630962193E-1,-2.684673667E-1
1.427187782E1,2.641761780E0,-4.208737612E-1,8.215895295E-2
1.429164772E1,2.825015783E0,-2.437280566E-1,5.598415136E-1
1.431141923E1,2.787143230E0,-5.741964281E-2,9.104678631E-1
1.433118912E1,2.776758909E0,-2.406738251E-1,1.204896212E0
1.435096063E1,2.783478260E0,-2.993151546E-2,1.214669824E0
1.437073053E1,2.822572470E0,-3.359659910E-1,1.119377613E0
1.439050204E1,2.755379200E0,-1.438545346E0,9.581139088E-1
1.441027193E1,2.705900669E0,-2.131246090E0,5.909947157E-1
1.443004339E1,2.920918941E0,-1.976701736E0,3.790307343E-1
1.444981329E1,3.022319555E0,-1.580261827E0,1.835595965E-1
1.446958480E1,2.867164373E0,-1.213753462E0,-1.670667231E-1
1.448935470E1,2.616106033E0,-1.073258638E0,-5.734328628E-1
1.450912621E1,1.952115178E0,-1.175270081E0,-9.222266674E-1
1.452889610E1,1.266744494E0,-1.127624035E0,-9.393303990E-1
1.454866756E1,7.890619636E-1,-9.547542930E-1,-7.151494026E-1
1.456843746E1,1.395785958E-1,-6.053496599E-1,-3.820849657E-1
1.458820897E1,-5.824428797E-1,-2.736595869E-1,1.817270666E-1
1.460797886E1,-1.260483265E0,2.333436459E-1,6.722373962E-1
1.462775037E1,-1.776649237E0,5.986303091E-1,8.402203918E-1
1.464752027E1,-1.820630312E0,4.031592011E-1,7.632536292E-1
1.466729173E1,-9.923213720E-1,-4.727957845E-1,7.382088900E-1
1.468706162E1,3.002314270E-1,-1.158166409E0,8.524373770E-1
1.470683313E1,1.194664478E0,-6.627692580E-1,3.246653080E-1
1.472660303E1,1.361425877E0,-1.979145110E-1,1.313321572E-2
1.474637454E1,8.849649429E-1,-1.124569774E0,6.872031838E-2
1.476614443E1,8.415948153E-1,-1.525285602E0,-6.607840061E-1
1.478591589E1,5.227325559E-1,-8.368607163E-1,-1.891030431E0
1.480568579E1,-7.889092565E-1,4.880669713E-1,-3.137158871E0
1.482545730E1,8.898517489E-1,-1.049435616E0,-1.113421798E0
1.484522720E1,-8.176190853E-1,2.379860878E0,1.102884769E0
1.486499871E1,-1.967233539E0,2.719644785E0,9.471186996E-1
1.488476855E1,-9.739959836E-1,2.229592502E-1,-1.383569092E-1
1.490454006E1,-1.869498014E0,9.669712186E-1,2.959555089E-1
1.492430996E1,-2.330687761E0,1.191763043E0,5.561764240E-1
1.494408147E1,-2.371614456E0,1.641957402E0,7.174401283E-1
1.496385136E1,-2.317859888E0,1.724421859E0,6.679614782E-1
1.498362282E1,-2.497448921E0,2.236311913E0,6.392516494E-1
1.500339272E1,-2.812646151E0,2.605416298E0,5.879405141E-1
1.502316423E1,-2.663599491E0,2.203325987E0,3.350497186E-1
1.504293412E1,-2.136438370E0,1.662115335E0,1.780619770E-1
1.506270563E1,-1.947075605E0,1.164274931E0,3.381039500E-1
1.508247548E1,-1.984337330E0,1.343863964E0,4.089622498E-1
1.510224699E1,-1.769319057E0,1.643790007E0,1.847812980E-1
1.512201688E1,-1.553079128E0,1.456259847E0,1.863084175E-2
1.514178839E1,-1.689298153E0,7.110261917E-1,7.788302749E-2
1.516155824E1,-1.952573299E0,2.968717813E-1,5.833591148E-2
1.518132975E1,-1.939134598E0,4.532486796E-1,-6.444438547E-2
1.520109964E1,-1.780925155E0,5.399889946E-1,-2.428117841E-1
1.522087115E1,-1.528645277E0,1.893626451E-1,-4.731011987E-1
1.524064105E1,-1.243990421E0,1.875301152E-1,-5.923691392E-1
1.526041251E1,-9.226847887E-1,6.163448691E-1,-5.299099684E-1
1.528018240E1,-4.352286756E-1,5.491516590E-1,-3.002314270E-1
1.529995391E1,-3.093941510E-1,4.618005157E-1,-2.531961799E-1
1.531972376E1,-7.605048269E-2,4.556920528E-1,-4.926483035E-1
1.533949527E1,1.579040140E-1,7.379034758E-1,-5.777087808E-1
1.535926516E1,6.742226481E-1,7.867712975E-1,-5.410579443E-1
1.537903662E1,1.388303161E0,2.840439677E-1,-5.514423847E-1
1.539880652E1,2.282583475E0,-5.509842038E-1,-5.887040496E-1
1.541857803E1,2.970397472E0,-9.584193230E-1,-1.688992679E-1
1.543834792E1,3.182972431E0,-7.379034758E-1,3.222219348E-1
1.545811938E1,3.044310093E0,-5.399889946E-1,6.966713071E-1
1.547788928E1,2.905036926E0,-6.432221532E-1,1.054627776E0
1.549766079E1,2.815242290E0,-2.023736954E0,1.235438585E0
1.551743068E1,2.625268698E0,-3.924846411E0,9.972081780E-1
1.553720214E1,2.523868084E0,-4.522254944E0,5.384618640E-1
1.555697204E1,3.082182646E0,-3.263909578E0,4.083513916E-1
1.557674350E1,3.591018438E0,-2.137965441E0,3.497100472E-1
1.559651339E1,3.357063770E0,-1.900956631E0,2.281514555E-1
1.561628490E1,2.597780704E0,-1.477028728E0,1.374406368E-2
1.563605475E1,1.846438527E0,-1.253458619E0,-3.368822634E-1
1.565582626E1,1.570946455E0,-1.285833478E0,-5.435013771E-1
1.567559615E1,1.127471328E0,-1.212531805E0,-7.395833135E-1
1.569536761E1,3.729222417E-1,-6.126797795E-1,-7.554653287E-1
1.571513751E1,-4.779879749E-1,-2.296785712E-1,-6.577298045E-1
1.573490897E1,-1.338671803E0,2.565558441E-2,-2.727433145E-1
1.575467886E1,-2.071688414E0,1.099525094E-1,3.826957941E-1
1.577445037E1,-2.338628769E0,1.521009654E-1,6.465818286E-1
1.579422022E1,-1.358829737E0,-1.527118124E-2,3.075616062E-1
1.581399173E1,7.096518278E-1,6.786513329E-1,-1.499630064E-1
1.583376157E1,1.275296330E0,5.241069198E-1,-5.514423847E-1
1.585353308E1,1.331494331E0,-4.318690002E-1,-4.724903405E-1
1.587330298E1,2.128802687E-1,-3.665083647E-1,-7.371399403E-1
1.589307443E1,4.946335554E-1,-6.132906675E-1,-3.216110766E-1
1.591284433E1,-6.667397618E-1,4.007157981E-1,5.250232220E-1
1.593261579E1,-7.736380696E-1,-2.712161839E-1,2.501419485E-1
1.595238568E1,-1.255596519E0,-2.761029601E-1,-5.593833923E-1
1.597215714E1,-2.058860779E0,8.863393664E-1,-9.142856598E-1
1.599192704E1,-2.542651653E0,1.677997470E0,-3.808632791E-1
1.601169855E1,-3.020945072E0,1.968760729E0,3.313846290E-1
1.603146839E1,-2.936037302E0,1.581483603E0,6.105418205E-1
1.605123990E1,-2.606790781E0,1.162442327E0,6.526902914E-1
1.607100975E1,-2.328244209E0,6.878139973E-1,5.989357233E-1
1.609078126E1,-2.173089027E0,5.467082858E-1,3.136700690E-1
1.611055110E1,-1.997165084E0,7.385143638E-1,1.191152167E-2
1.613032261E1,-1.553689957E0,8.900044560E-1,-8.857285604E-3
1.615009246E1,-1.264759302E0,6.817055345E-1,8.399149776E-2
1.616986397E1,-1.354553819E0,5.479300022E-1,6.444438547E-2
1.618963381E1,-1.485885978E0,4.807367921E-1,-2.351761982E-2
1.620940532E1,-1.643484592E0,4.459185004E-1,-4.734066129E-2
1.622917516E1,-1.781535983E0,9.101623893E-1,-5.192201585E-3
1.624894667E1,-1.612331390E0,7.409577370E-1,3.817795217E-2
1.626871652E1,-1.486496806E0,2.211267054E-1,-9.468132630E-3
1.628848803E1,-1.506654739E0,1.081199646E-1,-2.141019702E-1
1.630825787E1,-1.243990421E0,1.160609797E-1,-3.539859951E-1
1.632802938E1,-8.903098702E-1,3.567348123E-1,-3.619270027E-1
1.634779923E1,-7.290462255E-1,5.650337338E-1,-3.497100472E-1
1.636757074E1,-5.873296261E-1,3.005368412E-1,-4.535540938E-1
1.638734058E1,-3.668137789E-1,2.651077211E-1,-5.722111464E-1
1.640711209E1,-5.405998230E-2,2.113531530E-1,-5.048652887E-1
1.642688193E1,4.341596961E-1,-2.101314515E-1,-2.299840003E-1
1.644665345E1,9.179506898E-1,-8.533536196E-1,-1.927223057E-1
1.646642329E1,1.723658204E0,-7.195780873E-1,-1.316375881E-1
1.648619480E1,2.343668222E0,-6.743753552E-1,5.650337040E-2
1.650596464E1,2.825015783E0,-5.858024955E-1,1.151447073E-1
1.652573615E1,3.419370174E0,-3.011476994E-1,2.996205688E-1
1.654550600E1,3.434641361E0,-6.462764144E-1,5.537330508E-1
1.656527751E1,2.967954159E0,-1.160609841E0,7.937960029E-1
1.658504735E1,2.363826275E0,-1.482526302E0,8.927532434E-1
1.660481886E1,1.986933470E0,-2.334658146E0,5.592306852E-1
1.662458870E1,2.350998402E0,-2.907785654E0,3.558185399E-1
1.664436022E1,3.028428078E0,-2.334047318E0,6.184828281E-1
1.666413006E1,3.297811747E0,-2.015795946E0,6.801784039E-1
1.668390157E1,3.188469887E0,-2.250972033E0,4.779879749E-1
1.670367141E1,2.777369738E0,-2.081156492E0,1.328592747E-1
1.672344287E1,2.037022829E0,-1.655396104E0,-1.127013192E-1
1.674321277E1,1.394411564E0,-1.346307397E0,-4.184303805E-2
1.676298423E1,9.570449591E-1,-1.102579355E0,-1.688992679E-1
1.678275412E1,5.386145711E-1,-5.796940327E-1,-2.727433145E-1
1.680252558E1,5.039490014E-2,4.398100078E-2,-1.585148573E-1
1.682229548E1,-5.170822144E-1,4.184303582E-1,1.035386100E-1
1.684206693E1,-1.103495598E0,5.741963983E-1,3.625378609E-1
1.686183683E1,-1.412584305E0,5.228852630E-1,5.170822144E-1
1.688160829E1,-1.287971497E0,2.101314515E-1,5.928272605E-1
1.690137818E1,-6.245913506E-1,-3.524588645E-1,3.503209054E-1
1.692114964E1,1.585148573E-1,-1.497186661E0,-2.293731421E-1
1.694091954E1,1.164733052E0,-1.167329073E0,-6.161921620E-1
1.696069100E1,1.694948435E0,5.992411375E-1,-1.517955512E-1
1.698046089E1,1.120141149E0,-1.148392797E0,-1.374406368E-2
1.700023235E1,1.915464282E0,-1.907065153E0,-9.185615778E-1
1.702000225E1,1.768250108E0,5.405998230E-1,-1.444501042E0
1.703977370E1,9.283351302E-1,-9.645278454E-1,-6.375718117E-1
1.705954360E1,-9.037485123E-1,3.640649617E-1,1.102579311E-1
1.707931506E1,-3.973561525E-1,-4.483618736E-1,-3.814741075E-1
1.709908496E1,-1.383263588E0,2.057944298E0,2.385358512E-1
1.711885641E1,-2.598238707E0,2.719033957E0,6.728482842E-1
1.713862626E1,-2.361230135E0,1.193595529E0,4.731011987E-1
1.715839777E1,-2.115058661E0,1.808107942E-1,8.286142945E-1
1.717816761E1,-2.501724958E0,1.053711534E0,1.069898963E0
1.719793912E1,-2.972688198E0,2.582814932E0,9.226847887E-1
1.721770897E1,-3.043546438E0,2.497143507E0,4.474456310E-1
1.723748048E1,-2.845021009E0,1.775122166E0,2.031067163E-1
1.725725032E1,-2.545095205E0,1.446486354E0,1.249182671E-1
1.727702183E1,-2.163315535E0,9.633061290E-1,2.901524492E-2
1.729679167E1,-1.921420097E0,8.686248064E-1,5.650337040E-2
1.731656313E1,-1.805969954E0,1.174659252E0,6.077930331E-2
1.733633303E1,-1.685633063E0,1.187487125E0,-5.528167635E-2
1.735610449E1,-1.697849989E0,8.441908956E-1,-1.768402755E-1
1.737587438E1,-1.898207903E0,6.578825116E-1,-2.348707765E-1
1.739564584E1,-1.998997688E0,8.222004175E-1,-2.409792393E-1
1.741541574E1,-1.828571320E0,6.749862432E-1,-2.079934925E-1
1.743518720E1,-1.504211426E0,4.984513521E-1,-2.715215981E-1
1.745495704E1,-1.076007485E0,6.297835112E-1,-2.696890533E-1
1.747472855E1,-6.691831946E-1,5.870242119E-1,-2.079934925E-1
1.749449839E1,-4.474456310E-1,7.153021693E-1,-2.837385535E-1
1.751426990E1,-2.831276953E-1,1.091584086E0,-3.515425920E-1
1.753403975E1,-1.243074164E-1,8.405258060E-1,-3.197785318E-1
1.755381121E1,2.257080674E-1,5.528167486E-1,-2.342599183E-1
1.757358110E1,8.831323981E-1,1.624853760E-1,-1.951656938E-1
1.759335256E1,1.801846743E0,-8.124268800E-2,-1.163664013E-1
1.761312246E1,2.603889227E0,-5.021164417E-1,5.894676223E-2
1.763289391E1,2.795084238E0,-2.925958335E-1,4.865398407E-1
1.765266376E1,2.766374588E0,9.407047927E-2,6.985038519E-1
1.767243527E1,2.847617149E0,-3.121429384E-1,8.542698622E-1
1.769220511E1,2.789586782E0,-5.937435627E-1,8.280034661E-1
1.771197662E1,2.780424118E0,-8.393041492E-1,8.127322793E-1
1.773174647E1,2.664973974E0,-1.309045672E0,8.054021001E-1
1.775151792E1,2.470724344E0,-1.880187869E0,5.128062963E-1
1.777128782E1,2.529365778E0,-1.872246861E0,2.935121059E-1
1.779105928E1,2.672304153E0,-1.423884988E0,1.688992679E-1
1.781082917E1,2.646648407E0,-1.086086392E0,5.192201585E-3
1.783060063E1,2.407196283E0,-9.376505613E-1,-3.436015844E-1
1.785037048E1,1.730988383E0,-9.804098606E-1,-7.493568659E-1
1.787014199E1,1.026070714E0,-1.021947503E0,-8.837432861E-1
1.788991183E1,5.337277651E-1,-6.988092661E-1,-8.226585388E-1
1.790968329E1,-2.351761982E-2,-2.339545041E-1,-6.290199757E-1
1.792945318E1,-6.227588058E-1,1.276670843E-1,-2.507528067E-1
1.794922464E1,-1.168856263E0,5.479300022E-1,1.835595965E-1
1.796899454E1,-1.635543585E0,9.938485026E-1,5.042544007E-1
1.798876600E1,-1.816965222E0,1.204590797E0,7.443174124E-1
1.800853584E1,-1.308740258E0,8.448017836E-1,8.768712282E-1
1.802830735E1,-4.856235534E-2,-8.069292307E-1,5.335750580E-1
1.804807720E1,1.241699815E0,-1.717091680E0,-2.281514555E-1
1.806784865E1,1.883089423E0,-1.942494214E-1,-2.391466945E-1
1.808761855E1,1.167176366E0,3.884988427E-1,2.330382317E-1
1.810739001E1,5.978667736E-1,-1.130067468E0,-3.634541109E-2
1.812715985E1,1.142742515E0,-1.238187432E0,-6.320741773E-1
1.814693136E1,6.113054156E-1,1.789782494E-1,-1.395022392E0
1.816670121E1,1.012021184E0,-1.039662004E0,-1.332105160E0
1.818647266E1,5.117372870E-1,6.303943992E-1,-1.194206402E-1
1.820624256E1,-1.397313118E0,1.254069448E0,2.855710983E-1
1.822601402E1,-9.727742672E-1,3.377985358E-1,1.924168877E-2
1.824578386E1,-1.936691284E0,1.717702508E0,3.362714052E-1
1.826555537E1,-2.532267332E0,1.980977654E0,3.497100472E-1
1.828532522E1,-2.405822039E0,1.514901161E0,2.299840003E-1
1.830509667E1,-2.142546654E0,6.120689511E-1,6.423059106E-1
1.832486657E1,-2.251888514E0,9.339854717E-1,8.457180262E-1
1.834463803E1,-2.554257870E0,2.109255552E0,8.121214509E-1
1.836440787E1,-2.746063948E0,2.183779001E0,6.111527085E-1
1.838417933E1,-2.486453772E0,1.992583752E0,3.723114133E-1
1.840394923E1,-2.027096510E0,1.655396104E0,2.782409191E-1
1.842372068E1,-1.800472260E0,1.087918997E0,2.941229641E-1
1.844349053E1,-1.620272398E0,1.107466102E0,1.835595965E-1
1.846326204E1,-1.405864954E0,1.366465330E0,-7.177454978E-2
1.848303188E1,-1.313627005E0,1.062874198E0,-2.299840003E-1
1.850280334E1,-1.375933409E0,6.920899153E-1,-3.423798978E-1
1.852257324E1,-1.470003963E0,6.529957056E-1,-4.285093546E-1
1.854234470E1,-1.448013425E0,4.837910235E-1,-3.778090179E-1
1.856211454E1,-1.452900171E0,3.054236174E-1,-3.020639718E-1
1.858188600E1,-1.444348335E0,3.109212518E-1,-3.808632791E-1
1.860165589E1,-1.123653531E0,5.931326747E-1,-3.753656447E-1
1.862142735E1,-6.710157394E-1,5.583143830E-1,-2.593046725E-1
1.864119720E1,-4.828747511E-1,6.352811456E-1,-3.057290614E-1
1.866096871E1,-2.214321345E-1,1.003011227E0,-4.755446017E-1
1.868073855E1,1.872246861E-1,9.327637553E-1,-5.121954083E-1
1.870051001E1,7.084301114E-1,7.684458494E-1,-3.124483824E-1
1.872027985E1,1.476875901E0,2.388412803E-1,-1.664558798E-1
1.874005136E1,2.291746140E0,-5.112791657E-1,-1.731752008E-1
1.875982120E1,2.913588762E0,-6.499415040E-1,-9.468132630E-3
1.877959266E1,3.107838154E0,-7.922688723E-1,1.487413049E-1
1.879936256E1,3.234283447E0,-6.212316751E-1,4.541649222E-1
1.881913402E1,2.994220495E0,-2.577775419E-1,6.380299330E-1
1.883890386E1,2.704679012E0,-4.068242610E-1,6.960604787E-1
1.885867532E1,2.441403866E0,-1.466644287E0,8.658760190E-1
1.887844522E1,2.364437103E0,-2.728654623E0,7.516475320E-1
1.889821667E1,2.613051891E0,-3.022014141E0,3.692571819E-1
1.891798652E1,2.853725672E0,-2.341377497E0,2.385358512E-1
1.893775798E1,2.748659849E0,-1.925390601E0,3.319954872E-1
1.895752787E1,2.384594917E0,-1.966928124E0,3.985778391E-1
1.897729933E1,1.922183633E0,-1.992583752E0,2.929012477E-1
1.899706917E1,1.371199369E0,-1.843536973E0,3.970507067E-3
1.901684068E1,8.360971808E-1,-1.652341843E0,-1.096470803E-1
1.903661053E1,3.136700690E-1,-1.353637576E0,-2.351761982E-2
1.905638199E1,-2.434226274E-1,-7.751652002E-1,1.322484314E-1
1.907615188E1,-8.335011005E-1,-1.368297935E-1,3.448232710E-1
1.909592334E1,-1.264759302E0,3.353551328E-1,4.779879749E-1
1.911569318E1,-1.479777455E0,4.703523815E-1,5.897729993E-1
1.913546464E1,-1.550024867E0,1.252236813E-1,6.160394549E-1
1.915523454E1,-1.048519373E0,-3.188622594E-1,5.641174316E-1
1.917500600E1,3.329117596E-2,-1.114185452E0,2.086043358E-1
1.919477584E1,1.183669329E0,-1.409224629E0,-4.700469673E-1
1.921454735E1,1.575222373E0,-9.773556143E-3,-3.411581814E-1
1.923431720E1,9.411629438E-1,3.555130959E-1,1.261399537E-1
1.925408865E1,6.864396334E-1,-9.064973593E-1,-8.093725890E-2
1.927385855E1,8.721371889E-1,-1.389066696E0,-5.795413256E-1
1.929363001E1,1.194206402E-1,-1.759240031E-1,-3.778090179E-1
1.931339985E1,5.894676223E-2,-1.099525020E-2,-1.035386100E-1
1.933317131E1,6.872031838E-2,3.359659761E-2,5.344913527E-2
1.935294115E1,-8.383878469E-1,-4.727957845E-1,2.764083743E-1
1.937271266E1,-1.636154413E0,5.454866290E-1,5.494571328E-1
1.939248251E1,-1.625159144E0,6.939224601E-1,5.024218559E-1
1.941225397E1,-1.714342833E0,9.944593310E-1,4.120164812E-1
1.943202386E1,-1.774205923E0,9.126058221E-1,3.631486893E-1
1.945179532E1,-2.093068123E0,1.300493836E0,4.004103839E-1
1.947156516E1,-2.456522226E0,2.331604004E0,4.621059597E-1
1.949133662E1,-2.407654524E0,2.283957958E0,2.904578745E-1
1.951110647E1,-1.966622710E0,1.541167617E0,1.493521482E-1
1.953087798E1,-1.700904250E0,9.089407325E-1,2.012741715E-1
1.955064782E1,-1.812689185E0,8.478559852E-1,2.953446507E-1
1.957041928E1,-1.874384761E0,8.527427912E-1,1.517955512E-1
1.959018912E1,-1.674026966E0,7.195780873E-1,-7.635590620E-3
1.960996063E1,-1.396702290E0,4.227063060E-1,-1.801999472E-2
1.962973048E1,-1.276976228E0,1.215586066E-1,-4.795150831E-2
1.964950193E1,-1.359440565E0,-1.130067408E-1,-1.346918195E-1
1.966927178E1,-1.341115117E0,-2.382304370E-1,-2.782409191E-1
1.968904324E1,-9.837695360E-1,-3.695625961E-1,-2.922904193E-1
1.970881313E1,-7.382088900E-1,-1.105633527E-1,-2.012741715E-1
1.972858459E1,-8.970292211E-1,3.768927455E-1,-1.218640283E-1
1.974835443E1,-1.192679286E0,5.436540842E-1,-1.414111406E-1
1.976812589E1,-1.121821046E0,2.699944973E-1,-1.835595965E-1
1.978789574E1,-8.512156606E-1,8.796200156E-2,-1.939440072E-1
1.980766720E1,-7.333221436E-1,4.068242610E-1,-2.195995897E-1
1.982743709E1,-5.958815217E-1,7.220214605E-1,-2.648022771E-1
1.984720855E1,-3.509317636E-1,5.699204803E-1,-3.704788685E-1
1.986697839E1,-5.528167635E-2,2.156290859E-1,-3.869717419E-1
1.988674985E1,2.794626355E-1,-1.820324808E-1,-3.252761662E-1
1.990651970E1,8.348754644E-1,-4.520269632E-1,-2.910687327E-1
1.992629121E1,1.688839912E0,-4.172086716E-1,-2.208212912E-1
1.994606105E1,2.249597788E0,-5.100574493E-1,1.557660475E-2
1.996583251E1,2.508596897E0,-5.919110179E-1,1.847812980E-1
1.998560235E1,2.901371717E0,-1.386623234E-1,2.611372173E-1
2.000537381E1,2.963067293E0,1.337755471E-1,5.207473040E-1
2.002514370E1,2.755990028E0,-3.359659761E-2,6.166502833E-1
2.004491516E1,2.628933907E0,-4.068242610E-1,7.760814428E-1
2.006468501E1,2.543415308E0,-1.561936498E0,8.420529366E-1
2.008445647E1,2.644205093E0,-2.573499441E0,6.105418205E-1
2.010422636E1,2.856168985E0,-2.783630848E0,4.456130862E-1
2.012399782E1,2.873272896E0,-2.424452782E0,4.468347728E-1
2.014376766E1,2.473778725E0,-1.850867152E0,5.024218559E-1
2.016353912E1,1.894695520E0,-1.616301894E0,2.422009408E-1
2.018330902E1,1.495201349E0,-1.527729034E0,-2.043284029E-1
2.020308048E1,1.244753957E0,-1.261399627E0,-4.431696832E-1
2.022285032E1,9.332218766E-1,-1.042716265E0,-5.085303187E-1
2.024262178E1,4.946335554E-1,-5.974085927E-1,-5.128062963E-1
2.026239167E1,-5.955760926E-2,-3.665083554E-3,-3.735330999E-1
2.028216313E1,-5.592306852E-1,4.776825607E-1,-1.511846930E-1
2.030193298E1,-9.813261032E-1,7.763868570E-1,4.306473210E-2
2.032170449E1,-1.344169378E0,9.834640622E-1,1.743968874E-1
2.034147433E1,-1.497492075E0,1.042716265E0,2.440334857E-1
2.036124579E1,-1.212837219E0,7.702783942E-1,3.179459870E-1
2.038101568E1,-6.056550741E-1,9.834641218E-2,3.545968235E-1
2.040078714E1,2.901524492E-2,-6.505523324E-1,-9.804098308E-2
2.042055704E1,1.012632012E0,-2.480039895E-1,-5.274665952E-1
2.044032850E1,1.427397370E0,1.114796281E0,-2.220429778E-1
2.046009834E1,9.845330715E-1,-6.902574003E-2,-2.962609194E-2
2.047986985E1,7.811209559E-1,-1.425106645E0,-5.012001991E-1
2.049963970E1,4.848600030E-1,-1.094638348E0,-9.258917570E-1
2.051941115E1,-5.971031785E-1,9.675820470E-1,-5.225798488E-1
2.053918105E1,8.887827396E-2,7.262973785E-1,-1.218640283E-1
2.055895251E1,9.620844573E-2,1.033553600E0,-1.591257155E-1
2.057872240E1,-1.136481285E0,1.353637576E0,2.385358512E-1
2.059849386E1,-1.161526084E0,5.815265775E-1,3.069507480E-1
2.061826376E1,-1.986169815E0,1.742136359E0,6.129852533E-1
2.063803522E1,-2.320303202E0,1.920503736E0,5.531222224E-1
2.065780511E1,-1.844453335E0,1.005454540E0,2.434226274E-1
2.067757657E1,-1.903705478E0,5.473191738E-1,2.458660156E-1
