"Time (s)","Gyroscope x (rad/s)","Gyroscope y (rad/s)","Gyroscope z (rad/s)"
9.735044000E-3,3.176499158E-2,1.691224054E-2,1.762259007E-1
2.958348200E-2,3.176499158E-2,1.691224054E-2,1.762259007E-1
4.944129400E-2,0.000000000E0,0.000000000E0,0.000000000E0
6.928816900E-2,1.670454592E-1,1.001120880E-1,8.962265402E-2
8.914129400E-2,1.395041645E-1,2.958333120E-2,-5.448918045E-2
1.089944190E-1,1.477944851E-1,9.070476145E-2,-1.631708294E-1
1.288459820E-1,1.754579544E-1,2.390403003E-1,-2.083923072E-1
1.486991070E-1,1.575683206E-1,2.556034625E-1,-2.401922047E-1
1.685522320E-1,1.282467991E-1,2.468419224E-1,-2.701595128E-1
1.884037940E-1,1.022064835E-1,2.341533750E-1,-3.109304011E-1
2.082569190E-1,5.290092900E-2,2.271720618E-1,-3.328168392E-1
2.281100440E-1,-1.795943826E-2,2.473480552E-1,-3.303559124E-1
2.479616070E-1,-7.440338284E-2,2.816088796E-1,-3.227462769E-1
2.678209820E-1,-9.236282110E-2,2.912256420E-1,-3.418052793E-1
2.876678570E-1,-9.478883445E-2,2.744006515E-1,-3.795742095E-1
3.075209820E-1,-9.131562710E-2,2.503151298E-1,-4.031012356E-1
3.273725440E-1,-8.977973461E-2,2.291268259E-1,-4.255985320E-1
3.472256690E-1,-8.969247341E-2,2.248856723E-1,-4.349185824E-1
3.670787940E-1,-9.032078832E-2,2.256710678E-1,-4.323529601E-1
3.869303570E-1,-8.543386310E-2,2.163510174E-1,-4.346393347E-1
4.067834820E-1,-7.311183959E-2,1.872040182E-1,-4.418126345E-1
4.266366070E-1,-6.140068173E-2,1.339016557E-1,-4.487241507E-1
4.464881690E-1,-5.750859901E-2,6.309365481E-2,-4.540124834E-1
4.663412940E-1,-5.394812673E-2,-9.599310579E-4,-4.614301324E-1
4.861944190E-1,-3.656464815E-2,-4.665265232E-2,-4.610636234E-1
5.060475440E-1,-2.087413706E-2,-7.695156336E-2,-4.384441674E-1
5.258991070E-1,-1.574287005E-2,-2.227214724E-1,-4.320213497E-1
5.457522320E-1,-2.918190509E-2,-5.494645238E-1,-4.647462666E-1
5.656053570E-1,-5.565854907E-2,-7.143632770E-1,-4.250923991E-1
5.854569190E-1,-6.614797562E-2,-6.937683821E-1,-3.493450880E-1
6.053147320E-1,-6.895796210E-2,-6.756169796E-1,-2.981894910E-1
6.251631690E-1,-1.563465893E-1,-5.150117278E-1,-1.343205422E-1
6.450147320E-1,-2.353401929E-1,-3.739717007E-1,1.343903481E-3
6.648678570E-1,-2.551322281E-1,-3.072302938E-1,4.806636646E-2
6.847209820E-1,-2.741912305E-1,-2.640334070E-1,6.422811747E-2
7.045741070E-1,-3.453657627E-1,-2.257932425E-1,1.212131158E-1
7.244256690E-1,-4.173605740E-1,-1.968731433E-1,1.965938807E-1
7.442787940E-1,-4.532620013E-1,-1.976759881E-1,2.365793735E-1
7.641319190E-1,-4.743455946E-1,-1.892984062E-1,2.795842886E-1
7.839834820E-1,-4.706629515E-1,-1.604306698E-1,3.350334167E-1
8.038366070E-1,-4.517261088E-1,-1.116487086E-1,4.091575444E-1
8.236881690E-1,-4.161213934E-1,-6.042329967E-2,5.016250610E-1
8.435412940E-1,-3.589095175E-1,-2.686061710E-2,5.813342929E-1
8.633928570E-1,-2.870717645E-1,-3.176499158E-2,6.402041912E-1
8.832459820E-1,-2.298947722E-1,-1.191187203E-1,6.542192101E-1
9.030991070E-1,-2.035228461E-1,-2.159321308E-1,7.005402446E-1
9.229522320E-1,-2.085144818E-1,-2.867575884E-1,8.255756497E-1
9.428053570E-1,-1.964018941E-1,-2.422516942E-1,1.077095032E0
9.626569190E-1,-8.421213925E-2,-1.411622316E-1,1.346765876E0
9.825100440E-1,6.909758598E-2,-7.628834248E-2,1.591618061E0
1.002361607E0,1.381428093E-1,-1.645496339E-1,1.726619363E0
1.022214732E0,1.443387270E-1,-4.143586159E-1,1.713424683E0
1.042067857E0,3.465351164E-1,-4.072027802E-1,2.015087366E0
1.061920982E0,6.670648456E-1,-2.393369973E-1,2.472101688E0
1.081772544E0,1.010545611E0,-6.824237108E-2,2.915624857E0
1.101625669E0,1.396839380E0,1.139001846E-1,3.415242910E0
1.121478794E0,1.858112454E0,3.181386292E-1,4.009003639E0
1.141330357E0,2.265681744E0,4.983438551E-1,4.526738167E0
1.161183482E0,2.462572336E0,5.607044697E-1,4.770630836E0
1.181036607E0,2.400682926E0,4.807683825E-1,4.722651482E0
1.200888169E0,2.413127184E0,4.267853498E-1,4.671461105E0
1.220741294E0,2.512226820E0,3.482106328E-1,4.634739399E0
1.240594419E0,2.640840292E0,3.101450019E-2,4.467588902E0
1.260452232E0,2.926463366E0,-1.239532828E-1,4.382068157E0
1.280299107E0,3.163252115E0,-2.401049435E-1,4.268534184E0
1.300152232E0,3.361853123E0,-3.283662498E-1,4.145104408E0
1.320005357E0,3.461738348E0,-4.185997546E-1,3.975266695E0
1.339856919E0,3.464408636E0,-5.526584983E-1,3.791361332E0
1.359710044E0,3.400041103E0,-6.493148208E-1,3.613494873E0
1.379563169E0,3.324537992E0,-8.033925295E-1,3.461912870E0
1.399416294E0,3.216292620E0,-9.903870821E-1,3.339216232E0
1.419267857E0,3.091693640E0,-1.071579814E0,3.208927393E0
1.439120982E0,2.909149647E0,-1.111687422E0,3.065880299E0
1.458974107E0,2.700914383E0,-1.117604136E0,2.919377327E0
1.478825669E0,2.508439541E0,-1.056116223E0,2.746432543E0
1.498678794E0,2.299820423E0,-9.795311093E-1,2.572039366E0
1.518531919E0,2.090258598E0,-9.141860008E-1,2.418799400E0
1.538383482E0,1.943371773E0,-8.761552572E-1,2.281407118E0
1.558236607E0,1.996377349E0,-1.054510474E0,2.201540947E0
1.578094419E0,2.115024805E0,-1.216023207E0,2.102301359E0
1.597941294E0,2.144259214E0,-1.241155982E0,1.959900022E0
1.617794419E0,2.020393133E0,-1.134551287E0,1.800813317E0
1.637647544E0,1.879335642E0,-1.036271811E0,1.657853365E0
1.657500669E0,1.777757406E0,-9.769480228E-1,1.530479193E0
1.677352232E0,1.915411592E0,-1.190768361E0,1.491418719E0
1.697205357E0,2.003498316E0,-1.327148318E0,1.418952703E0
1.717058482E0,1.860713005E0,-1.225831985E0,1.297617435E0
1.736910044E0,1.741995692E0,-1.143871307E0,1.211520314E0
1.756769419E0,1.657905698E0,-1.089661360E0,1.158462286E0
1.776616294E0,1.578440905E0,-1.075035572E0,1.167991757E0
1.796469419E0,1.592229009E0,-1.112595081E0,1.167380929E0
1.816320982E0,1.698030829E0,-1.196196318E0,1.128320456E0
1.836174107E0,1.893280864E0,-1.338667512E0,1.091755748E0
1.856031919E0,1.874535918E0,-1.331633806E0,1.046848536E0
1.875878794E0,1.790812492E0,-1.295749903E0,1.032344818E0
1.895731919E0,1.796519756E0,-1.346224785E0,1.113450289E0
1.915583482E0,2.165604591E0,-1.583641887E0,1.145110488E0
1.935436607E0,2.262574911E0,-1.606296301E0,1.077810645E0
1.955289732E0,2.322195530E0,-1.599070668E0,9.972113371E-1
1.975142857E0,2.290831804E0,-1.534825087E0,8.909731507E-1
1.994994419E0,2.290779591E0,-1.486252546E0,7.704232335E-1
2.014847544E0,1.925447226E0,-1.240143657E0,6.466444731E-1
2.034699107E0,5.389576778E-2,-1.500459611E-1,2.963918149E-1
2.054552232E0,-4.126482010E-1,1.134987622E-1,1.281071603E-1
2.074405357E0,-6.557201743E-1,2.076243609E-1,6.508332491E-2
2.094258482E0,-6.704158783E-1,1.805717647E-1,-4.757767543E-2
2.114110044E0,-3.490134776E-1,-1.684242673E-2,-2.122844011E-1
2.133963169E0,-3.991568089E-2,-1.997703910E-1,-3.004584312E-1
2.153814732E0,-6.496115774E-2,-1.845860183E-1,-3.213849366E-1
2.173667857E0,-6.983062625E-2,-1.780584902E-1,-2.984687686E-1
2.193520982E0,1.918116808E-1,-3.227637410E-1,-2.046573013E-1
2.213374107E0,3.887022734E-1,-4.297873378E-1,-1.064301804E-1
2.233225669E0,6.671695709E-1,-5.635668039E-1,-5.176646635E-2
2.253078794E0,2.587258577E0,-1.488085151E0,-7.730063051E-2
2.272931919E0,4.419487953E0,-2.371937275E0,-2.166477144E-1
2.292783482E0,5.047649384E0,-2.621798754E0,-1.817760468E-1
2.312636607E0,4.833794117E0,-2.457423687E0,-7.651523501E-2
2.332489732E0,4.029790878E0,-2.107153416E0,5.145230517E-2
2.352341294E0,4.604161263E0,-2.587642670E0,4.635594413E-2
2.372194419E0,4.337247849E0,-2.795825481E0,9.203121066E-2
2.392049107E0,3.429659128E0,-2.464195490E0,2.837556303E-1
2.411900669E0,3.759124994E0,-2.757009268E0,4.277278483E-1
2.431752232E0,4.560021877E0,-3.335812807E0,5.062502027E-1
2.451605357E0,5.703474045E0,-4.689298153E0,3.782826662E-1
2.471458482E0,5.318070412E0,-5.032499790E0,5.223421454E-1
2.491310044E0,4.723018169E0,-4.853917599E0,7.131764293E-1
2.511163169E0,4.254501820E0,-4.458600521E0,8.527504206E-1
2.531016294E0,3.556946039E0,-3.656691551E0,1.048140049E0
2.550869419E0,3.299684525E0,-3.409483194E0,1.148234606E0
2.570720982E0,3.294396162E0,-3.746418953E0,1.177608490E0
2.590574107E0,2.888205767E0,-3.520416260E0,1.344130397E0
2.610427232E0,2.552212477E0,-3.538061619E0,1.525016308E0
2.630278794E0,2.277881622E0,-3.625799417E0,1.687436700E0
2.650131919E0,2.017862320E0,-3.588693619E0,1.808457851E0
2.669985044E0,1.753392696E0,-3.463815212E0,1.914102554E0
2.689842857E0,1.445184946E0,-3.117123127E0,2.025925875E0
2.709689732E0,1.097183824E0,-2.324150324E0,2.128097296E0
2.729542857E0,7.430564761E-1,-1.365737557E0,2.276537657E0
2.749400669E0,5.546307564E-1,-8.154527545E-1,2.329700470E0
2.769247544E0,4.770159423E-1,-4.635769129E-1,2.310850859E0
2.789100669E0,4.286703169E-1,1.196772233E-1,2.289837122E0
2.808953794E0,4.062253833E-1,7.977201939E-1,2.289680004E0
2.828811607E0,4.143411517E-1,1.391044855E0,2.281529188E0
2.848658482E0,3.722612858E-1,1.326991320E0,2.225626469E0
2.868511607E0,2.836858034E-1,4.438895881E-1,2.046695232E0
2.888364732E0,8.621926606E-2,-8.713381886E-1,1.763637781E0
2.908216294E0,-1.604306698E-1,-1.932795048E0,1.496043921E0
2.928069419E0,-4.101349115E-1,-2.734320164E0,1.253216267E0
2.947920982E0,-6.145304441E-1,-3.212278366E0,1.048820734E0
2.967774107E0,-7.636164427E-1,-3.469732046E0,8.803789616E-1
2.987627232E0,-9.054244757E-1,-3.752597570E0,7.355690002E-1
3.007480357E0,-9.535606503E-1,-3.786945581E0,6.453354955E-1
3.027331919E0,-9.933716059E-1,-3.847508430E0,5.608091950E-1
3.047185044E0,-9.702983499E-1,-3.721844912E0,5.081176758E-1
3.067038169E0,-7.811046243E-1,-3.061202765E0,5.326919556E-1
3.086889732E0,-6.225414872E-1,-2.521197796E0,3.363598585E-1
3.106747544E0,-8.039510250E-1,-2.950932980E0,-7.997098565E-2
3.126595982E0,-9.210975170E-1,-3.178453922E0,-3.526263237E-1
3.146447544E0,-6.448991299E-1,-2.523466825E0,-2.759365439E-1
3.166300669E0,-3.174579442E-1,-1.783848643E0,-1.901012659E-1
3.186153794E0,2.972295694E-2,-1.019900560E0,-1.223126724E-1
3.206006919E0,2.916968763E-1,-4.739092588E-1,-1.173733920E-1
3.225858482E0,5.438795090E-1,3.799581900E-2,-1.091005281E-1
3.245716294E0,1.237508297E0,1.543970585E0,5.487314984E-2
3.265563169E0,2.552317142E0,4.599605560E0,4.642750323E-1
3.285417857E0,2.999767303E0,5.853101254E0,6.475346088E-1
3.305269419E0,2.944562435E0,5.924712181E0,6.631203890E-1
3.325120982E0,2.755857468E0,5.626679897E0,6.222098470E-1
3.344974107E0,2.542473555E0,5.229582310E0,5.640555024E-1
3.364827232E0,2.356770515E0,4.767890453E0,4.862487316E-1
3.384680357E0,2.438015461E0,4.551486969E0,3.518932760E-1
3.404531919E0,2.494738817E0,4.669750690E0,2.669306695E-1
3.424385044E0,2.271179438E0,4.219892025E0,2.196496874E-1
3.444236607E0,2.040394545E0,3.734987020E0,1.885479242E-1
3.464089732E0,1.826923370E0,3.278792858E0,1.720021963E-1
3.483942857E0,1.798561811E0,3.133756161E0,1.350710243E-1
3.503794419E0,2.030673027E0,3.621069431E0,3.715806082E-2
3.523647544E0,2.327605963E0,4.563302994E0,-1.400801241E-1
3.543500669E0,2.004964352E0,4.087683201E0,-1.468520015E-1
3.563353794E0,1.607570410E0,3.576930046E0,-1.557357311E-1
3.583206919E0,1.395966649E0,3.240901947E0,-1.541300267E-1
3.603058482E0,1.270547390E0,2.972540140E0,-1.450194120E-1
3.622911607E0,1.149561167E0,2.717023849E0,-1.335176826E-1
3.642763169E0,1.007124782E0,2.418432951E0,-1.184031367E-1
3.662616294E0,8.336914182E-1,2.070553780E0,-1.007753089E-1
3.682469419E0,6.264684796E-1,1.672042847E0,-6.700319052E-2
3.702322544E0,5.026199222E-1,1.306239367E0,9.162978269E-3
3.722174107E0,3.673219979E-1,7.595847249E-1,1.642180234E-1
3.742033482E0,2.232625186E-1,2.552718520E-1,2.934771180E-1
3.761880357E0,1.459618807E-1,8.461356163E-2,3.142465353E-1
3.781731919E0,1.008800324E-2,-2.080606967E-1,3.224321306E-1
3.801591294E0,-1.217018068E-1,-4.288972020E-1,2.974215448E-1
3.821439732E0,-3.444058299E-1,-4.307647049E-1,1.909913868E-1
3.841291294E0,-4.668930173E-1,-1.074250117E-1,4.141666368E-2
3.861144419E0,-3.809879124E-1,2.718873918E-1,-5.806710571E-2
3.880995982E0,-3.257656991E-1,3.164107502E-1,-6.700319052E-2
3.900849107E0,-1.745503843E-1,5.680522919E-1,-8.257152885E-2
3.920702232E0,1.149299294E-1,1.176386833E0,-1.106713265E-1
3.940553794E0,3.840422332E-1,1.684120536E0,-9.377653897E-2
3.960406919E0,4.183903337E-1,1.729411840E0,-6.991788745E-2
3.980258482E0,5.450314283E-1,1.836714745E0,1.673770696E-2
4.000111607E0,4.194375277E-1,1.169719696E0,1.192408949E-1
4.019964732E0,-1.864256024E0,-5.121407032E0,-2.273465842E-1
4.039817857E0,-3.427111149E0,-8.646937370E0,-3.829601407E-1
4.059670982E0,-3.581747293E0,-8.698947906E0,-2.949082851E-1
4.079522544E0,-3.355936527E0,-8.105257034E0,-2.619041204E-1
4.099375669E0,-3.088045835E0,-7.409585953E0,-2.146231383E-1
4.119227232E0,-2.773799419E0,-6.587937355E0,-1.659808159E-1
4.139080357E0,-2.476430178E0,-5.846434116E0,-1.321388781E-1
4.158933482E0,-2.097676277E0,-4.815537930E0,-1.115265414E-1
4.178785044E0,-1.879108787E0,-4.302603245E0,-9.314822406E-2
4.198638169E0,-1.653245687E0,-3.821450710E0,-1.158549562E-1
4.218497544E0,-1.150590897E0,-2.744530201E0,-2.935120165E-1
4.238349107E0,-7.384138703E-1,-1.874762893E0,-3.380004764E-1
4.258195982E0,-3.634124696E-1,-1.020895481E0,-2.868448496E-1
4.278049107E0,6.346017122E-2,-7.784168236E-3,-2.312910259E-1
4.297902232E0,4.217937291E-1,8.765916228E-1,-1.739395112E-1
4.317753794E0,6.458416581E-1,1.444800973E0,-1.303237379E-1
4.337606919E0,8.304451108E-1,1.918221593E0,-9.471901506E-2
4.357460044E0,9.934239388E-1,2.343488455E0,-6.459463388E-2
4.377311607E0,1.124864697E0,2.724354267E0,-4.267330095E-2
4.397164732E0,1.218536496E0,3.046838760E0,-2.916445211E-2
4.417017857E0,1.261279583E0,3.235718250E0,-2.726204321E-2
4.436869419E0,1.225971580E0,3.168278694E0,-2.555162087E-2
4.456722544E0,1.173873544E0,2.990865946E0,-2.391101047E-2
4.476575669E0,1.097061634E0,2.424122810E0,1.308996929E-3
4.496427232E0,9.994453192E-1,1.889667988E0,3.811798990E-2
4.516280357E0,9.311156869E-1,1.695552468E0,5.323254317E-2
4.536133482E0,8.660672903E-1,1.468118548E0,7.379251719E-2
4.555985044E0,7.919780612E-1,1.184746981E0,1.022413895E-1
4.575838169E0,7.402814031E-1,9.801943302E-1,1.209338605E-1
4.595691294E0,8.279842138E-1,6.415830255E-1,1.288402081E-1
4.615544419E0,8.547052145E-1,6.957929730E-1,1.010894701E-1
4.635402232E0,7.954686880E-1,7.882081270E-1,8.367108554E-2
4.655249107E0,7.608413696E-1,8.640950322E-1,6.656685472E-2
4.675102232E0,7.209082246E-1,8.932769895E-1,5.695009232E-2
4.694955357E0,7.976503968E-1,1.340412855E0,-4.207988828E-2
4.714806919E0,8.411265016E-1,1.664572835E0,-1.260127723E-1
4.734664732E0,8.558047414E-1,1.839786410E0,-1.849001795E-1
4.754511607E0,8.478285670E-1,1.951766729E0,-2.383421659E-1
4.774364732E0,7.931299806E-1,1.908884048E0,-2.605427504E-1
4.794216294E0,7.133858800E-1,1.769519567E0,-2.530552745E-1
4.814069419E0,6.179338098E-1,1.589087367E0,-2.253918201E-1
4.833922544E0,5.204920769E-1,1.288890719E0,-1.527163088E-1
4.853774107E0,3.963119090E-1,7.862882614E-1,-3.811798990E-2
4.873627232E0,1.634675413E-1,1.037772745E-1,5.251695588E-2
4.893480357E0,-8.016297221E-2,-5.033704042E-1,9.077457339E-2
4.913339732E0,-3.569896519E-1,-1.036411405E0,1.015781611E-1
4.933186607E0,-5.381199121E-1,-1.171831489E0,5.902703479E-2
4.953038169E0,-5.944765806E-1,-1.075506806E0,-8.517206647E-3
4.972891294E0,-5.663768053E-1,-6.659303904E-1,-1.085769311E-1
4.992742857E0,-4.179888964E-1,4.717624933E-2,-2.385865152E-1
5.012595982E0,-3.659431934E-1,-1.017876044E-1,-2.395289838E-1
5.032449107E0,-3.780034184E-1,-3.726277947E-1,-2.362128645E-1
5.052302232E0,-6.019291282E-1,-9.980490804E-1,-2.056346983E-1
5.072153794E0,-9.931970835E-1,-2.486884832E0,-1.183856800E-1
5.092006919E0,-1.215744019E0,-3.389673710E0,-9.906488657E-2
5.111860044E0,-1.914992690E0,-5.885965824E0,8.414231986E-2
5.131711607E0,-2.124187946E0,-6.373279095E0,2.369284481E-1
5.151564732E0,-2.122617006E0,-6.147241592E0,3.733433783E-1
5.171417857E0,-1.960109472E0,-5.597951412E0,3.736400902E-1
5.191275669E0,-1.783691525E0,-4.999792099E0,3.721216619E-1
5.211122544E0,-1.585160375E0,-4.360164165E0,3.407057226E-1
5.230981919E0,-1.307443619E0,-3.219085217E0,2.341184616E-1
5.250828794E0,-1.140537739E0,-2.788058758E0,1.635548025E-1
5.270680357E0,-8.750731945E-1,-2.176181316E0,-9.681341052E-2
5.290533482E0,-4.662646949E-1,-9.524261951E-1,-3.638487756E-1
5.310386607E0,-1.913055331E-1,-2.010270208E-1,-4.371875226E-1
5.330238169E0,-1.422443334E-2,2.823768258E-1,-4.058937728E-1
5.350091294E0,1.548805237E-1,7.677878141E-1,-3.833964765E-1
5.369944419E0,2.835461795E-1,1.158811331E0,-3.539178669E-1
5.389797544E0,3.729419410E-1,1.425392985E0,-3.204250038E-1
5.409649107E0,4.258428812E-1,1.584933519E0,-2.808932960E-1
5.429502232E0,4.676609635E-1,1.731069922E0,-2.438573986E-1
5.449355357E0,4.759512842E-1,1.933493137E0,-1.965240687E-1
5.469213169E0,4.617443085E-1,2.133036613E0,-1.583188176E-1
5.489060044E0,4.899313748E-1,2.403580189E0,-1.762957126E-1
5.508913169E0,5.150117278E-1,2.536190271E0,-2.001892626E-1
5.528764732E0,5.301612020E-1,2.427962303E0,-1.988802701E-1
5.548617857E0,5.135107636E-1,2.299558640E0,-1.781632155E-1
5.568470982E0,5.342627168E-1,1.964088798E0,-1.415636539E-1
5.588322544E0,5.627290606E-1,1.163401604E0,-4.417428374E-2
5.608175669E0,4.921130240E-1,1.102175415E-1,1.109854877E-1
5.628027232E0,2.492155582E-1,-6.616368890E-1,3.269001544E-1
5.647881919E0,4.780456796E-2,-5.374217629E-1,4.390375614E-1
5.667733482E0,3.541272879E-2,-4.960400164E-1,4.287924767E-1
5.687586607E0,6.255260110E-2,-9.418145418E-1,4.433136284E-1
5.707438169E0,1.547583491E-1,-7.427074313E-1,3.256435394E-1
5.727297544E0,1.795245707E-1,-5.007698536E-1,2.611710727E-1
5.747144419E0,2.522175312E-1,5.145230517E-2,1.362927556E-1
5.766997544E0,3.648087084E-1,8.907287717E-1,-4.225442186E-2
5.786849107E0,4.341855645E-1,1.378408670E0,-1.526115835E-1
5.806702232E0,4.469090104E-1,1.469130874E0,-1.838704348E-1
5.826555357E0,4.564035833E-1,1.554774165E0,-2.241526395E-1
5.846406919E0,4.338713884E-1,1.496462703E0,-2.350958437E-1
5.866260044E0,3.717725873E-1,1.209146619E0,-2.018822283E-1
5.886113169E0,2.537359595E-1,9.661968350E-1,-1.597150862E-1
5.905964732E0,9.573131055E-2,6.690370440E-1,-9.690067917E-2
5.925817857E0,-1.311789453E-1,4.344124496E-1,-1.167625282E-2
5.945669419E0,-3.379131854E-1,5.161113143E-1,3.682644665E-2
5.965522544E0,-3.242821693E-1,5.900958180E-1,6.108652451E-4
5.985375669E0,-3.174753785E-1,5.073497295E-1,-1.373574138E-2
6.005228794E0,-3.447025120E-1,4.502600431E-1,-2.066469751E-2
6.025080357E0,-5.039812922E-1,4.368559122E-1,1.441641990E-2
6.044933482E0,-4.584805369E-1,-5.311036855E-2,4.293509759E-3
6.064786607E0,-4.443608224E-1,-4.026300013E-1,-2.113593742E-2
6.084638169E0,-5.065119863E-1,-1.514369845E0,-5.014330894E-2
6.104491294E0,-7.204544544E-1,-2.497723341E0,-3.710569814E-2
6.124344419E0,-9.503492117E-1,-3.215420008E0,1.741838641E-2
6.144197544E0,-1.108249187E0,-3.600753784E0,8.368853480E-2
6.164055357E0,-1.152510762E0,-3.620720387E0,1.251575649E-1
6.183902232E0,-1.137535810E0,-3.501723766E0,1.452288479E-1
6.203755357E0,-1.069363236E0,-3.275424480E0,1.412320435E-1
6.223613169E0,-9.523214698E-1,-2.903198004E0,1.147903055E-1
6.243460044E0,-6.540970206E-1,-1.835405707E0,-1.958259381E-2
6.263313169E0,-2.071007639E-1,-4.284259677E-1,-2.142566144E-1
6.283164732E0,1.403070241E-1,3.769736588E-1,-3.487516940E-1
6.303024107E0,3.862937093E-1,1.106451511E0,-3.452435732E-1
6.322870982E0,6.098529696E-1,1.948223829E0,-2.771233916E-1
6.342722544E0,8.607789278E-1,2.949327230E0,-1.904852390E-1
6.362575669E0,8.892626762E-1,3.127176285E0,-1.222254038E-1
6.382428794E0,8.326791525E-1,2.978718519E0,-6.970845163E-2
6.402281919E0,7.621329427E-1,2.879252195E0,-2.499311417E-2
6.422133482E0,6.788283587E-1,2.835566521E0,1.127482671E-2
6.441986607E0,5.995904207E-1,2.875429869E0,2.682571113E-2
6.461839732E0,5.830272436E-1,3.261426926E0,-1.724385284E-2
6.481691294E0,6.000791192E-1,3.593720198E0,-9.573131055E-2
6.501544419E0,5.510702729E-1,3.461092710E0,-1.226268336E-1
6.521397544E0,5.148546696E-1,3.121940136E0,-1.076868176E-1
6.541250669E0,5.599365234E-1,2.802667141E0,-7.819075137E-2
6.561102232E0,8.986700177E-1,2.543031931E0,-2.398082428E-2
6.580955357E0,1.055819511E0,2.030114651E0,6.984807551E-2
6.600808482E0,9.064890742E-1,9.597390890E-1,2.239257395E-1
6.620660044E0,6.267826557E-1,3.101799190E-1,3.128153682E-1
6.640513169E0,5.972167850E-1,3.797836304E-1,2.938785255E-1
6.660366294E0,8.739387393E-1,7.451334000E-1,2.345722467E-1
6.680217857E0,8.973959088E-1,1.188900828E0,1.487020552E-1
6.700070982E0,8.339532018E-1,1.239201188E0,1.246688664E-1
6.719928794E0,7.726572752E-1,1.301806211E0,9.487609565E-2
6.739775669E0,6.791774035E-1,1.483198285E0,2.604031190E-2
6.759628794E0,6.040584445E-1,1.537966728E0,-2.555162087E-2
6.779481919E0,5.607044697E-1,1.583484888E0,-7.389724255E-2
6.799335044E0,5.306324363E-1,1.659424186E0,-1.306378990E-1
6.819186607E0,4.973141253E-1,1.621131659E0,-1.378111988E-1
6.839039732E0,4.749564528E-1,1.546640992E0,-1.113170981E-1
6.858897544E0,4.220031500E-1,1.438744664E0,-7.384487987E-2
6.878744419E0,3.719645739E-1,1.392057180E0,-5.010840297E-2
6.898597544E0,7.250097394E-2,8.850913644E-1,-1.469567232E-2
6.918450669E0,-3.401472270E-1,3.623827100E-1,-3.752457723E-2
6.938302232E0,-4.056319594E-1,4.187568426E-1,-9.243264049E-2
6.958155357E0,-4.279721975E-1,3.970274925E-1,-1.095717698E-1
6.978008482E0,-4.690572321E-1,3.253817260E-1,-1.189790964E-1
6.997860044E0,-3.712838888E-1,4.874530137E-1,-1.275835633E-1
7.017713169E0,-1.888446212E-1,6.658779979E-1,-8.756317198E-2
7.037566294E0,1.829105057E-2,9.664062858E-1,-3.806563094E-2
7.057417857E0,3.984935880E-1,1.773603559E0,6.209881604E-2
7.077270982E0,6.231349111E-1,2.401572943E0,1.731541157E-1
7.097124107E0,7.253064513E-1,2.510097504E0,3.262369335E-1
7.116977232E0,-3.187826395E0,-1.254256439E1,-2.697755396E-1
7.136835044E0,-3.050329447E0,-1.144454288E1,-1.490511149E-1
7.156681919E0,-2.849756241E0,-1.064563560E1,-1.186125726E-1
7.176535044E0,-2.623683691E0,-9.890851021E0,-9.639453143E-2
7.196386607E0,-2.360435724E0,-8.966384888E0,-9.293878078E-2
7.216245982E0,-2.156808138E0,-8.668596268E0,-3.550697863E-1
7.236092857E0,-1.830483913E0,-7.488387585E0,-6.600137353E-1
7.255944419E0,-2.190283537E0,-9.498605728E0,-8.748637438E-1
7.275803794E0,-2.117223978E0,-9.387445450E0,-8.473398685E-1
7.295649107E0,-2.397035122E0,-1.118927097E1,-8.685107231E-1
7.315502232E0,-2.413650751E0,-1.184809780E1,-8.269718885E-1
7.335355357E0,-2.252696514E0,-1.124168301E1,-7.582233548E-1
7.355208482E0,-2.307447433E0,-1.185291481E1,-6.908711195E-1
7.375060044E0,2.200127125E0,1.353619766E1,6.276901960E-1
7.394913169E0,1.744665980E0,1.178549290E1,6.063622832E-1
7.414766294E0,1.521036983E0,1.097658539E1,5.509306192E-1
7.434617857E0,1.292608261E0,1.042326355E1,5.017995834E-1
7.454470982E0,1.096834660E0,9.266964912E0,4.206418097E-1
7.474324107E0,9.243787527E-1,7.881523132E0,3.575306833E-1
7.494175669E0,8.628384471E-1,6.786834717E0,2.905274928E-1
7.514028794E0,9.971240759E-1,5.855335236E0,2.085668445E-1
7.533881919E0,1.183525205E0,4.834806442E0,1.265189201E-1
7.553739732E0,9.427919388E-1,2.076871872E0,-2.314306609E-2
7.573586607E0,1.778141409E-1,-2.862165451E0,-2.323731333E-1
7.593439732E0,-2.107310593E-1,-4.900448322E0,-2.793225050E-1
7.613292857E0,-8.352796435E-1,-8.502004623E0,-2.500009537E-1
7.633144419E0,-9.105033875E-1,-8.735390663E0,-2.123018503E-1
7.652997544E0,-8.703433275E-1,-8.001548767E0,-3.258355260E-1
7.672850669E0,-7.971442342E-1,-7.223498821E0,-3.050137460E-1
7.692703794E0,-7.690269947E-1,-6.773134232E0,-2.793225050E-1
7.712561607E0,-6.962292790E-1,-5.905827522E0,-2.872288227E-1
7.732408482E0,-6.805387735E-1,-5.516165257E0,-2.792526782E-1
7.752261607E0,-8.504989147E-1,-6.152931213E0,-3.448421657E-1
7.772113169E0,1.782522202E0,1.399813366E1,3.147003055E-1
7.791966294E0,1.232272267E0,1.095560646E1,3.227812052E-1
7.811819419E0,9.939301014E-1,9.419559479E0,3.425033987E-1
7.831670982E0,6.673091650E-1,7.544394970E0,3.301290274E-1
7.851524107E0,1.282118857E-1,4.525883198E0,2.525840402E-1
7.871377232E0,-2.028596252E-1,1.970546484E0,1.041612476E-1
7.891228794E0,-3.373895884E-1,7.236484289E-1,-3.134611249E-2
7.911081919E0,-6.022782326E-1,-1.409859538E0,-2.620437443E-1
7.930935044E0,-7.559021115E-1,-2.166791439E0,-2.999348342E-1
7.950788169E0,-8.693659306E-1,-2.841326237E0,-3.310191333E-1
7.970639732E0,-9.436995387E-1,-3.460289717E0,-3.737098873E-1
7.990492857E0,-9.665808082E-1,-3.721897125E0,-4.022983909E-1
8.010345982E0,-1.023722887E0,-5.551909924E0,-4.653745890E-1
8.030197544E0,-9.413782358E-1,-5.347548962E0,-2.923775613E-1
8.050050669E0,-8.596968055E-1,-4.713243961E0,-1.197295859E-1
8.069903794E0,-7.806857824E-1,-4.206295967E0,2.443460980E-4
8.089755357E0,-7.041530609E-1,-3.876271486E0,3.785619140E-2
8.109608482E0,-6.199758649E-1,-3.765390873E0,1.757546514E-2
8.129461607E0,-5.498310924E-1,-3.863844872E0,-1.087340117E-1
8.149314732E0,-5.449441671E-1,-3.733922482E0,-2.863736153E-1
8.169166294E0,-6.207612753E-1,-3.253014565E0,-4.879067838E-1
8.189019419E0,-5.857499242E-1,-3.034534216E0,-5.156051517E-1
8.208877232E0,-5.354321003E-1,-2.804115772E0,-5.014330745E-1
8.228724107E0,-4.749738872E-1,-2.536905766E0,-4.891983271E-1
8.248577232E0,-3.865380585E-1,-2.107380390E0,-4.438197613E-1
8.268430357E0,-2.683618367E-1,-1.466477990E0,-3.612656891E-1
8.288281919E0,-1.423839629E-1,-3.905523121E-1,-2.534218132E-1
8.308135044E0,5.169665068E-2,1.280286312E0,-5.379104614E-2
8.327988169E0,2.438050359E-1,2.361535072E0,9.206611663E-2
8.347839732E0,4.003261626E-1,3.156253338E0,2.012190074E-1
8.367692857E0,5.542118549E-1,3.983521938E0,3.130771518E-1
8.387545982E0,6.805562377E-1,4.669279099E0,3.893131316E-1
8.407399107E0,7.776663303E-1,5.063950539E0,3.961897492E-1
8.427250669E0,9.301732183E-1,5.569939137E0,2.726378739E-1
8.447103794E0,1.077636123E0,6.292854309E0,2.257932425E-1
8.466955357E0,1.111076593E0,6.554967880E0,2.353576422E-1
8.486808482E0,1.193683028E0,7.219292641E0,2.177821845E-1
8.506661607E0,1.477264166E0,1.166824150E1,3.495720029E-1
8.526513169E0,1.456093311E0,1.225297928E1,3.282964230E-1
8.546366294E0,1.311911583E0,8.252440453E0,1.685464382E-1
8.566219419E0,1.285504818E0,7.450286865E0,1.224522963E-1
8.586072544E0,1.085088611E0,4.659330845E0,9.063494951E-2
8.605924107E0,8.700117469E-1,2.479728937E0,1.062381938E-1
8.625777232E0,7.059682012E-1,1.077164888E0,1.347045153E-1
8.645628794E0,6.006899476E-1,4.782900214E-1,1.487544179E-1
8.665481919E0,5.725029111E-1,1.015746713E0,1.145983189E-1
8.685335044E0,5.536009669E-1,1.828825831E0,6.475171447E-2
8.705194419E0,5.220454335E-1,2.476639748E0,1.514945831E-2
8.725039732E0,4.751484394E-1,2.830766916E0,-2.802998759E-2
8.744892857E0,4.059635699E-1,2.479728937E0,-2.213077433E-2
8.764745982E0,3.282091618E-1,1.736602545E0,2.733185515E-2
8.784597544E0,1.946042180E-1,1.106364205E-1,1.231504306E-1
8.804450669E0,-2.403492928E-1,-5.375282288E0,2.735629082E-1
8.824303794E0,-6.292435527E-1,-8.855434418E0,2.936167419E-1
8.844155357E0,-3.707951903E-1,-2.082334757E0,2.116386294E-1
8.864008482E0,-4.137302935E-1,-8.821068406E-1,1.802401543E-1
8.883861607E0,-3.947062194E-1,-3.750188947E-1,1.388060302E-1
8.903714732E0,-3.745301962E-1,2.101725489E-1,1.095892265E-1
8.923566294E0,-3.645643592E-1,1.733914733E0,1.090132669E-1
8.943419419E0,-2.493377328E-1,2.276467800E0,1.092750654E-1
8.963272544E0,-3.682644665E-2,3.525111198E0,1.825788915E-1
8.983124107E0,1.138146639E0,1.459006214E1,1.024892211E0
9.002977232E0,-1.366889477E0,-1.547707367E1,-9.835977554E-1
9.022830357E0,-1.277266860E0,-1.299078274E1,-4.789183438E-1
9.042683482E0,-1.189982891E0,-1.118316269E1,-2.070484012E-1
9.062535044E0,-1.118180037E0,-9.557213783E0,6.702064537E-3
9.082388169E0,-1.030198097E0,-8.349707603E0,1.146332249E-1
9.102241294E0,-9.354790449E-1,-7.413670063E0,1.611637026E-1
9.122092857E0,-8.512668610E-1,-6.589490414E0,1.876403540E-1
9.141945982E0,-7.733728290E-1,-5.916788101E0,1.690874994E-1
9.161799107E0,-7.002609968E-1,-5.393573284E0,1.187347472E-1
9.181652232E0,-6.842737794E-1,-5.110934734E0,-8.798204362E-2
9.201510044E0,-7.251843214E-1,-5.107513905E0,-3.779161274E-1
9.221361607E0,-6.840468645E-1,-5.398705006E0,-5.193052888E-1
9.241208482E0,-6.269397140E-1,-4.994853020E0,-5.004731417E-1
9.261061607E0,-5.907939672E-1,-4.791068554E0,-5.287824273E-1
9.280914732E0,-5.644569397E-1,-4.534784317E0,-5.459913611E-1
9.300767857E0,-5.131965876E-1,-3.976488352E0,-4.951499104E-1
9.320619419E0,-4.439768493E-1,-3.310156584E0,-4.211654067E-1
9.340472544E0,-3.668332994E-1,-2.630228519E0,-3.466398418E-1
9.360325669E0,-2.968805134E-1,-1.472063065E0,-2.565982938E-1
9.380177232E0,1.784773618E-1,5.248554230E0,2.677684128E-1
9.400030357E0,5.013982058E-1,8.200953484E0,5.750859976E-1
9.419883482E0,5.857848525E-1,8.556564331E0,6.158917546E-1
9.439736607E0,6.424731612E-1,9.024538994E0,6.385112405E-1
9.459588169E0,7.746644020E-1,1.018877792E1,5.871287584E-1
9.479441294E0,9.163676500E-1,1.241272926E1,5.838475227E-1
9.499294419E0,8.571661115E-1,1.320706367E1,5.068784952E-1
9.519145982E0,8.263610601E-1,1.204156780E1,3.838328123E-1
9.538999107E0,8.563981652E-1,1.157118416E1,3.087836504E-1
9.558852232E0,-7.146948576E-1,-1.526250267E1,-9.819222242E-2
9.578703794E0,-4.604876637E-1,-1.215829468E1,1.237438433E-2
9.598556919E0,-4.281990826E-1,-1.103744507E1,3.673918173E-2
9.618413169E0,-4.069409668E-1,-9.798784256E0,1.492256485E-2
9.638261607E0,-3.400076032E-1,-8.252946854E0,-2.321287990E-2
9.658114732E0,-2.504896522E-1,-6.727493763E0,-6.454227865E-2
9.677967857E0,-6.129421592E-1,-8.735111237E0,5.544910952E-2
9.697825669E0,-1.141375542E0,-1.209150124E1,3.125011921E-1
9.717672544E0,-1.244838595E0,-1.315267944E1,3.899938166E-1
9.737525669E0,-1.011610270E0,-1.195002460E1,2.705783844E-1
9.757378794E0,-8.387528658E-1,-1.075468349E1,1.771334708E-1
9.777236607E0,-7.343822122E-1,-9.815522194E0,1.298175901E-1
9.797083482E0,-6.261543036E-1,-8.701059341E0,5.256931856E-2
9.816935044E0,-5.550845265E-1,-7.409236908E0,-1.026253588E-2
9.836788169E0,-4.406432807E-1,-5.449563503E0,-8.850564808E-2
9.856641294E0,-3.159918487E-1,-3.256417751E0,-1.819680333E-1
9.876492857E0,-1.883559376E-1,-1.071160913E0,-2.724982500E-1
9.896345982E0,-9.937904775E-2,5.858721137E-1,-3.299195766E-1
9.916230357E0,-4.365068302E-2,1.574915290E0,-3.554711938E-1
9.936050669E0,-2.062979154E-2,2.519295454E0,-3.435156941E-1
9.955903794E0,-5.007349700E-2,3.684878826E0,-2.843490541E-1
9.975756919E0,-9.072221071E-2,6.237614632E0,-1.725956053E-1
9.995608482E0,-2.282541543E-1,5.277020454E0,-1.697856337E-1
1.001546161E1,-3.249628544E-1,2.160351038E0,-2.745403051E-1
1.003531473E1,-1.098859310E-1,-8.925613761E-2,-4.449542463E-1
1.005516786E1,-1.080184281E-1,6.084043384E-1,-3.678630590E-1
1.007501942E1,-1.038819999E-1,2.096698999E0,-1.804321408E-1
1.009487254E1,-2.078687213E-2,2.509120226E0,-8.958774805E-2
1.011472567E1,2.008001357E-1,2.995491028E0,9.485864639E-2
1.013457723E1,3.604454100E-1,3.056106329E0,2.334552407E-1
1.015443036E1,3.981270492E-1,2.889741659E0,2.888519764E-1
1.017428348E1,3.620510995E-1,2.609529018E0,2.756747603E-1
1.019413661E1,3.240378201E-1,2.328845263E0,2.463008612E-1
1.021402254E1,2.272244096E-1,2.221123457E0,2.078687102E-1
1.023384129E1,7.649777830E-2,2.134258509E0,1.224522963E-1
1.025369911E1,1.469567232E-2,1.764405727E0,1.872738265E-2
1.027354598E1,4.799655639E-3,1.483809114E0,-2.323033288E-2
1.029339911E1,-1.827359758E-2,1.059467196E0,-1.033234894E-1
1.031325223E1,-5.782275647E-2,8.342848420E-1,-1.790882349E-1
1.033311004E1,-9.463175386E-2,8.663116097E-1,-2.317797244E-1
1.035295692E1,-8.297295123E-2,1.233459115E0,-2.198242247E-1
1.037281004E1,-6.257005036E-2,1.859403968E0,-1.724908948E-1
1.039266317E1,-2.464404888E-2,2.468401670E0,-1.159771308E-1
1.041251473E1,6.178465672E-3,3.094259262E0,-6.246533245E-2
1.043236786E1,3.269001842E-2,3.980240822E0,1.591740362E-2
1.045222098E1,6.129596382E-2,5.056864738E0,1.293288916E-1
1.047207254E1,1.019097716E-1,5.806780338E0,2.220233381E-1
1.049192567E1,1.600117832E-1,6.152111053E0,2.592163086E-1
1.051177879E1,2.208714187E-1,6.293412685E0,2.681000233E-1
1.053163036E1,2.733010948E-1,6.418710232E0,2.744704783E-1
1.055148348E1,3.086963892E-1,6.494684219E0,2.741737664E-1
1.057133661E1,3.358886242E-1,6.642129898E0,2.497915179E-1
1.059118817E1,3.873758316E-1,6.896686077E0,1.418080032E-1
1.061104129E1,5.409124494E-1,7.047185898E0,-4.921828583E-2
1.063089442E1,6.820746660E-1,6.078318596E0,-9.571385384E-2
1.065074754E1,6.779556870E-1,4.508237839E0,3.358013555E-2
1.067059911E1,5.665862560E-1,3.459783554E0,2.137853801E-1
1.069045692E1,5.152561069E-1,2.695818186E0,3.248930275E-1
1.071030536E1,5.474050641E-1,2.709553957E0,2.773677111E-1
1.073015692E1,5.366014838E-1,2.863841057E0,2.489363104E-1
1.075001473E1,5.240350962E-1,3.010849953E0,2.225992978E-1
1.076986317E1,5.098106861E-1,3.194528580E0,1.848827302E-1
1.078971629E1,4.646939039E-1,3.357350349E0,1.452113986E-1
1.080956786E1,4.128576219E-1,3.447304487E0,1.161342114E-1
1.082942098E1,3.640756905E-1,3.426203489E0,8.758062124E-2
1.084927411E1,3.231128156E-1,3.444721460E0,4.775220901E-2
1.086912567E1,2.941578031E-1,3.398836613E0,2.209586836E-2
1.088898348E1,2.915223539E-1,3.277361870E0,1.726130582E-2
1.090883192E1,2.944021225E-1,3.122690678E0,3.820525855E-2
1.092868348E1,2.694788277E-1,2.615532875E0,1.207418740E-1
1.094854129E1,2.385166883E-1,2.156441450E0,1.881639510E-1
1.096838973E1,1.685813516E-1,2.065509796E0,1.992816925E-1
1.098824129E1,5.459389836E-2,2.031807661E0,1.926668882E-1
1.100809442E1,-1.216669008E-1,2.268805742E0,1.378111988E-1
1.102794598E1,-2.288475633E-1,2.645238400E0,6.298892945E-2
1.104779911E1,-2.560746968E-1,2.668067455E0,5.098106712E-2
1.106765223E1,-3.038443625E-1,2.441296816E0,6.398376822E-2
1.108750536E1,-3.016452491E-1,2.338025570E0,7.981390506E-2
1.110735692E1,-1.591391265E-1,2.607574224E0,1.198517606E-1
1.112721004E1,-5.667084083E-2,2.804883718E0,1.711993515E-1
1.114706317E1,1.001120880E-1,2.991564035E0,2.860071063E-1
1.116692098E1,5.331282616E-1,4.904287815E0,5.243842006E-1
1.118677411E1,1.434520960E0,1.016584492E1,8.903273344E-1
1.120664754E1,1.815927863E0,1.191546726E1,9.306444526E-1
1.122647254E1,1.848478198E0,1.166110325E1,8.921424747E-1
1.124632567E1,1.885147572E0,1.133708286E1,8.639379740E-1
1.126617879E1,1.767041087E0,1.038010120E1,7.871958613E-1
1.128603036E1,1.518157244E0,8.971882820E0,6.720215678E-1
1.130588348E1,1.182687402E0,7.284689903E0,5.289744139E-1
1.132573661E1,2.083399594E-1,2.799700022E0,8.440412581E-2
1.134558973E1,-1.613033265E-1,5.362349749E-1,-2.428800166E-1
1.136544286E1,-2.435956001E-1,-1.287354827E-1,-3.306177258E-1
1.138529598E1,-2.464230359E-1,-3.669380248E-1,-3.688404262E-1
1.140514754E1,-2.660928965E-1,-7.250272036E-1,-4.032234251E-1
1.142500067E1,-3.045075834E-1,-1.219688416E0,-4.107981324E-1
1.144485223E1,-3.469539881E-1,-1.803029776E0,-4.169417024E-1
1.146470536E1,-3.809704781E-1,-2.363123417E0,-4.202229083E-1
1.148455692E1,-4.766145051E-1,-3.138102055E0,-4.633499980E-1
1.150441004E1,-5.975483656E-1,-3.884893417E0,-5.396034718E-1
1.152426317E1,-6.675360799E-1,-4.215755463E0,-6.233792305E-1
1.154411629E1,-6.877120733E-1,-4.100249767E0,-7.790102363E-1
1.156396786E1,-5.755223036E-1,-3.601364613E0,-8.315795660E-1
1.158382098E1,-3.917042315E-1,-3.000447750E0,-7.991513610E-1
1.160367411E1,-1.226093769E-1,-2.267863274E0,-6.697177291E-1
1.162352567E1,8.955284208E-2,-1.746166945E0,-4.938234687E-1
1.164338504E1,2.537534237E-1,-1.402703643E0,-2.754129469E-1
1.166323192E1,3.719471097E-1,-1.213719368E0,-6.059783325E-2
1.168308973E1,5.168094635E-1,-8.211250305E-1,1.007054970E-1
1.170293661E1,7.164751291E-1,-1.265189201E-1,2.457423508E-1
1.172279598E1,6.870488524E-1,-2.229309082E-1,3.298148811E-1
1.174264129E1,5.448045135E-1,-5.879141688E-1,3.119775951E-1
1.176249442E1,4.712389112E-1,-6.211103201E-1,2.635621727E-1
1.178234754E1,4.137302935E-1,-5.821371078E-1,2.140646279E-1
1.180220067E1,3.407231867E-1,-5.783148408E-1,1.525417715E-1
1.182205223E1,2.527934909E-1,-5.804616213E-1,6.925466657E-2
1.184190536E1,1.756848395E-1,-5.476145148E-1,-4.625122529E-3
1.186176317E1,1.246339604E-1,-5.023057461E-1,-4.682718217E-2
1.188161004E1,8.066911995E-2,-4.572937191E-1,-9.075712413E-2
1.190146317E1,4.394739121E-2,-3.683342934E-1,-9.852383286E-2
1.192131629E1,-6.771877408E-3,-2.907544076E-1,-6.307619810E-2
1.194116942E1,-5.770058557E-2,-1.956164986E-1,1.021017600E-2
1.196102098E1,-1.956514083E-2,2.140471786E-1,7.258824259E-2
1.198087411E1,1.396263397E-4,5.624846816E-1,1.049640998E-1
1.200072723E1,-3.249803185E-2,7.131415009E-1,1.244768798E-1
1.202058036E1,-4.452160299E-1,-5.862211585E-1,1.809731871E-1
1.204043192E1,-7.340505719E-1,-1.341756821E0,1.377937496E-1
1.206028504E1,-8.880409598E-1,-1.513252854E0,3.801327199E-2
1.208013661E1,-7.228630185E-1,-8.937830925E-1,7.552039623E-2
1.209998973E1,-6.068509817E-1,-3.774448931E-1,1.028173491E-1
1.211984286E1,-3.752981424E-1,5.165650845E-1,1.926494390E-1
1.213970067E1,6.876597181E-3,2.078425407E0,3.225542903E-1
1.215954754E1,5.012934804E-1,4.108313084E0,4.526336789E-1
1.217940536E1,8.543910384E-1,5.515764236E0,5.751557946E-1
1.219928036E1,1.223580480E0,6.811566353E0,6.910631061E-1
1.221910536E1,1.417050242E0,7.334484577E0,7.456744909E-1
1.223895848E1,1.384203196E0,7.022017956E0,7.179062963E-1
1.225881161E1,1.333606124E0,6.626666069E0,6.817954183E-1
1.227866942E1,1.212113738E0,6.002152443E0,6.111619473E-1
1.229851629E1,1.049204707E0,5.278154850E0,5.263389349E-1
1.231836942E1,5.496041775E-1,3.927113056E0,4.065220952E-1
1.233822723E1,-1.441991031E-1,1.794215918E0,1.652652323E-1
1.235807411E1,-3.803072572E-1,4.276405573E-1,-1.304808110E-1
1.237792567E1,-3.718773127E-1,1.095717698E-1,-2.051285505E-1
1.239777879E1,-3.703937829E-1,-1.796292812E-1,-2.744181156E-1
1.241763192E1,-3.527834117E-1,-3.383669853E-1,-3.186622262E-1
1.243748348E1,-3.290643692E-1,-4.068711400E-1,-2.944719493E-1
1.245733661E1,-3.194127083E-1,-5.706877708E-1,-2.524793148E-1
1.247718973E1,-3.527484834E-1,-9.893573523E-1,-2.378360182E-1
1.249704286E1,-4.360530674E-1,-1.662059546E0,-2.628291249E-1
1.251689442E1,-5.372821689E-1,-2.317448139E0,-3.003013432E-1
1.253674754E1,-6.308317780E-1,-2.971039057E0,-3.644073009E-1
1.255660067E1,-6.892654300E-1,-3.479209185E0,-4.692841172E-1
1.257645223E1,-5.999045968E-1,-3.439275980E0,-7.167194486E-1
1.259630536E1,-3.708301187E-1,-2.873161077E0,-7.624819875E-1
1.261615848E1,-1.426457614E-1,-2.292716742E0,-6.779033542E-1
1.263601004E1,3.090978041E-2,-1.838826537E0,-4.972442985E-1
1.265586317E1,2.574709654E-1,-1.188220143E0,-3.261147738E-1
1.267572254E1,5.199859142E-1,-3.730117679E-1,-2.491632104E-1
1.269556942E1,7.809301019E-1,4.989198148E-1,-1.600117832E-1
1.271542098E1,6.837327480E-1,2.923949957E-1,-4.778711498E-2
1.273527411E1,6.300464272E-1,2.069436908E-1,1.240929123E-2
1.275512723E1,5.350131989E-1,-1.082104165E-2,3.885103017E-2
1.277497879E1,4.423187971E-1,-2.179392576E-1,5.599016324E-2
1.279483192E1,3.769038618E-1,-3.416307569E-1,5.274384841E-2
1.281468504E1,3.204250038E-1,-4.228583574E-1,3.480186686E-2
1.283453661E1,2.001892626E-1,-7.379950285E-1,-7.295475900E-2
1.285438973E1,1.509535313E-1,-7.712609768E-1,-1.432217211E-1
1.287424286E1,1.206197068E-1,-7.137000561E-1,-1.506917328E-1
1.289409598E1,8.681267500E-2,-6.861587167E-1,-1.579872072E-1
1.291394754E1,4.201007634E-2,-7.340855002E-1,-1.484227926E-1
1.293380067E1,5.235987715E-3,-6.833313107E-1,-1.194677874E-1
1.295365379E1,4.897394031E-2,-2.148674875E-1,-7.482226193E-2
1.297351161E1,2.180265337E-1,8.691041470E-1,-7.627088577E-3
1.299335848E1,2.676113248E-1,1.521316290E0,3.000221029E-2
1.301321161E1,1.964542568E-1,1.604725480E0,4.010766745E-2
1.303306942E1,-4.289495647E-1,-5.487315059E-1,1.202357337E-1
1.305291629E1,-6.276727319E-1,-1.205760717E0,-9.267698042E-3
1.307276942E1,-6.347936988E-1,-1.073796391E0,-9.061749279E-2
1.309262254E1,-6.089977622E-1,-8.089426756E-1,-9.265953302E-2
1.311247411E1,-6.326469183E-1,-7.291811109E-1,-1.010371074E-1
1.313232723E1,-5.269498229E-1,-8.580038697E-2,-6.220353395E-2
1.315218036E1,-3.605850339E-1,8.630478382E-1,1.665044017E-2
1.317203817E1,-1.305680871E-1,2.155498981E0,1.628915817E-1
1.319191161E1,1.675516069E-1,3.690673113E0,3.302861154E-1
1.321173817E1,5.408077240E-1,5.379767895E0,5.364444256E-1
1.323158973E1,8.559617996E-1,6.475922108E0,6.944141388E-1
1.325144286E1,1.056866646E0,6.801582813E0,7.591309547E-1
1.327129598E1,9.808576107E-1,6.182374954E0,6.777637005E-1
1.329114911E1,8.782322407E-1,5.496268749E0,5.799205303E-1
1.331100067E1,7.835655808E-1,4.871370792E0,4.907691181E-1
1.333085379E1,6.891257763E-1,4.335624695E0,4.137302935E-1
1.335070692E1,2.472957075E-1,2.625533581E0,3.417354822E-2
1.337055848E1,-7.777187228E-2,1.751699686E0,-9.955357760E-2
1.339041629E1,-1.550550461E-1,1.272345066E0,-1.731017530E-1
1.341026473E1,-1.941678822E-1,7.662693262E-1,-2.624800801E-1
1.343011786E1,-2.147278637E-1,4.271867871E-1,-3.154857159E-1
1.344996942E1,-2.268229872E-1,3.621558249E-1,-2.845759392E-1
1.346982254E1,-2.508910894E-1,3.435680568E-1,-2.214997411E-1
1.348967411E1,-2.923077345E-1,1.947438419E-1,-1.777268797E-1
1.350952723E1,-3.441440165E-1,-1.549852341E-1,-1.683544517E-1
1.352938036E1,-3.967307806E-1,-7.048686743E-1,-1.915324330E-1
1.354923348E1,-4.488637745E-1,-1.431239843E0,-2.399827689E-1
1.356908504E1,-5.134409666E-1,-2.446916580E0,-3.205820620E-1
1.358893817E1,-6.015277505E-1,-3.895016432E0,-4.647811651E-1
1.360878973E1,-6.391046643E-1,-5.127079010E0,-6.163804531E-1
1.362864286E1,-5.356938839E-1,-5.120656490E0,-6.344620585E-1
1.364849598E1,-2.762681544E-1,-3.946730375E0,-5.132489800E-1
1.366835379E1,1.396787018E-1,-1.837011337E0,-3.220132589E-1
1.368820067E1,2.587974072E-1,-1.306832671E0,-2.284810543E-1
1.370805379E1,2.320240736E-1,-1.640871286E0,-2.092998773E-1
1.372791161E1,2.728124261E-1,-1.545855522E0,-1.777268797E-1
1.374775848E1,4.012511969E-1,-9.611004591E-1,-1.511106044E-1
1.376761161E1,4.323878586E-1,-9.090372920E-1,-1.398706883E-1
1.378746317E1,4.049862027E-1,-1.117604136E0,-1.294859797E-1
1.380731629E1,3.788935244E-1,-1.292224288E0,-1.273043156E-1
1.382716942E1,3.131644130E-1,-1.659424186E0,-1.208640486E-1
1.384702254E1,2.191784531E-1,-2.186426401E0,-1.018748656E-1
1.386687411E1,1.041787043E-1,-2.745420456E0,-7.782422751E-2
1.388672723E1,6.288421154E-2,-2.817118406E0,-7.040657848E-2
1.390658036E1,5.534439161E-2,-2.654628277E0,-8.066911995E-2
1.392643192E1,4.619886354E-2,-2.413546085E0,-9.677850455E-2
1.394628504E1,8.918632753E-3,-2.347625017E0,-9.883799404E-2
1.396613817E1,-4.600688070E-2,-2.363821507E0,-9.042550623E-2
1.398598973E1,-8.096582443E-2,-2.315685272E0,-7.789404690E-2
1.400584286E1,-1.117010717E-3,-1.690054655E0,-3.733259439E-2
1.402569598E1,1.359611452E-1,-5.289569497E-1,1.829105057E-2
1.404554911E1,2.646093667E-1,1.142178416E0,5.455899239E-2
1.406540067E1,3.746349216E-1,3.095795155E0,1.244419720E-2
1.408526004E1,4.157723188E-1,4.146256447E0,-4.145156965E-2
1.410510692E1,3.966958821E-1,4.439384460E0,-7.173303515E-2
1.412495848E1,1.380380839E-1,3.347279787E0,1.912880875E-2
1.414481161E1,-3.691895008E-1,-9.142034501E-2,9.220574051E-2
1.416467098E1,-5.227261186E-1,-1.269412875E0,2.303834539E-3
1.418454442E1,-5.290267467E-1,-1.136663079E0,-4.455825686E-2
1.420436942E1,-5.513145924E-1,-1.043200731E0,-5.398303270E-2
1.422422254E1,-5.871985555E-1,-1.094792724E0,-6.801547855E-2
1.424407567E1,-5.888217092E-1,-8.430114985E-1,-6.258750707E-2
1.426392723E1,-4.802797139E-1,5.443158150E-1,4.187044874E-2
1.428378036E1,-2.418677211E-1,3.108082294E0,2.473306060E-1
1.430363348E1,2.213950157E-1,6.298858166E0,4.850793481E-1
1.432348504E1,5.065119863E-1,6.912760258E0,5.170537829E-1
1.434333817E1,6.445850134E-1,6.787166595E0,5.255709887E-1
1.436319129E1,6.531370878E-1,6.309312820E0,5.077860951E-1
1.438304286E1,6.559820175E-1,5.919755459E0,5.075941086E-1
1.440289598E1,6.532767415E-1,5.569450378E0,5.167396069E-1
1.442275536E1,5.953841805E-1,5.072049141E0,4.838576317E-1
1.444260223E1,5.135805607E-1,4.478462696E0,4.160690308E-1
1.446245379E1,4.273962379E-1,3.961583138E0,3.550348878E-1
1.448230692E1,2.862863541E-1,3.193202019E0,2.261597663E-1
1.450216473E1,1.185253114E-1,2.054933310E0,2.247984149E-2
1.452201161E1,-3.214896470E-2,1.281682491E0,-9.637708217E-2
1.454186473E1,-1.195026934E-1,8.570264578E-1,-1.427330226E-1
1.456171786E1,-2.144486010E-1,2.665815949E-1,-2.105041593E-1
1.458156942E1,-2.721841037E-1,-3.551221490E-1,-2.615026832E-1
1.460142254E1,-3.106511533E-1,-8.691390753E-1,-2.725331485E-1
1.462127567E1,-3.601661325E-1,-1.494315982E0,-2.775946259E-1
1.464112879E1,-4.849397242E-1,-3.122254372E0,-3.475299478E-1
1.466098661E1,-7.267027497E-1,-6.781145096E0,-5.470210910E-1
1.468083348E1,-8.407949209E-1,-9.309969902E0,-6.974859238E-1
1.470068661E1,-8.090124726E-1,-9.598770142E0,-7.676306963E-1
1.472053817E1,-7.208908200E-1,-8.993978500E0,-7.871783972E-1
1.474039129E1,-5.971643925E-1,-8.087122917E0,-6.838723421E-1
1.476024442E1,-3.790506124E-1,-6.723374844E0,-4.946961105E-1
1.478009754E1,-7.124433666E-2,-4.895439148E0,-2.670353651E-1
1.479994911E1,6.335545331E-3,-4.414199352E0,-1.822298318E-1
1.481980067E1,3.906046972E-2,-4.152941227E0,-1.470265388E-1
1.483965379E1,1.300095767E-1,-3.550505877E0,-9.505063295E-2
1.485950692E1,2.711194456E-1,-2.632410288E0,-5.796238407E-2
1.487936004E1,4.081452489E-1,-1.731244445E0,-3.785619140E-2
1.489921161E1,4.274660349E-1,-1.470911145E0,-2.848377265E-2
1.491906473E1,3.462384045E-1,-1.758907914E0,-7.086036727E-3
1.493891786E1,2.803871334E-1,-1.913980365E0,1.247910410E-2
1.495876942E1,9.238027781E-2,-2.813226461E0,1.380206347E-1
1.497862254E1,-2.317797206E-2,-3.087609529E0,1.525941342E-1
1.499847567E1,-2.183406800E-2,-2.776277781E0,1.348266900E-1
1.501832879E1,-1.619665511E-2,-2.445625067E0,1.190140024E-1
1.503818036E1,1.431170036E-3,-2.072020054E0,9.553932399E-2
1.505803348E1,1.165007278E-1,-1.150433779E0,-1.143190637E-2
1.507788661E1,1.328719109E-1,-8.312305212E-1,-5.525712296E-2
1.509773817E1,1.278977245E-1,-5.797110796E-1,-7.225663215E-2
1.511759754E1,1.301317513E-1,-1.568003744E-1,-8.740609139E-2
1.513744286E1,1.476897597E-1,5.041383505E-1,-9.943141043E-2
1.515729598E1,2.028421611E-1,1.541143179E0,-1.287529320E-1
1.517717411E1,4.307298064E-1,3.734463453E0,-1.765225977E-1
1.519700692E1,6.788283587E-1,6.084165573E0,-3.082251549E-1
1.521685379E1,7.127226591E-1,6.609230042E0,-3.564834893E-1
1.523670692E1,6.640628576E-1,6.479988575E0,-3.478266597E-1
1.525656004E1,6.674139202E-2,3.800925732E0,1.914626174E-2
1.527641161E1,-3.983713984E-1,7.402988672E-1,1.216319948E-1
1.529626629E1,-6.152459979E-1,-6.607642174E-1,5.414011329E-2
1.531611786E1,-5.946860313E-1,-1.644972861E-1,2.024581889E-3
1.533597098E1,-5.364967585E-1,6.122614741E-1,1.111774705E-2
1.535582254E1,-4.871737659E-1,1.261471629E0,2.609267272E-2
1.537567567E1,-3.086963892E-1,2.666810751E0,5.565854907E-2
1.539552879E1,-1.674468815E-1,3.587698698E0,8.656833321E-2
1.541538036E1,-4.862487316E-2,4.173850060E0,1.174781099E-1
1.543523348E1,3.701668680E-1,5.774037838E0,2.410823256E-1
1.545508661E1,6.432759762E-1,6.208956242E0,2.944195867E-1
1.547493817E1,7.867594957E-1,6.224594593E0,3.559424579E-1
1.549479129E1,7.631976008E-1,5.785330296E0,3.536560535E-1
1.551464442E1,7.204893827E-1,5.348840714E0,3.501479626E-1
1.553449754E1,6.646388173E-1,4.923015118E0,3.407929838E-1
1.555434911E1,5.833064914E-1,4.404809475E0,2.979277074E-1
1.557420223E1,5.043128729E-1,3.910549879E0,2.505769134E-1
1.559405536E1,3.751585186E-1,3.338378429E0,1.640958488E-1
1.561391317E1,2.439970225E-1,2.534549713E0,9.407324716E-3
1.563376004E1,5.099852011E-2,1.905026913E0,-9.505063295E-2
1.565361786E1,-1.178969890E-1,1.393610477E0,-1.644972861E-1
1.567346629E1,-2.038719058E-1,1.045766354E0,-1.929636002E-1
1.569331786E1,-2.724458873E-1,7.490255237E-1,-2.111848444E-1
1.571317098E1,-2.892010510E-1,6.147747636E-1,-1.953547001E-1
1.573302254E1,-2.884680033E-1,5.376312137E-1,-1.730668545E-1
1.575287567E1,-2.889741659E-1,4.204148948E-1,-1.587726027E-1
1.577272879E1,-2.993414104E-1,1.665916741E-1,-1.640435010E-1
1.579258192E1,-3.201806545E-1,-3.768165708E-1,-2.050063759E-1
1.581243348E1,-3.742334843E-1,-1.469619632E0,-3.073175848E-1
1.583228661E1,-5.242445469E-1,-3.475264788E0,-4.847128391E-1
1.585213973E1,-7.749785185E-1,-7.090364933E0,-8.112813830E-1
1.587199129E1,-7.229852080E-1,-7.513712406E0,-8.066213727E-1
1.589184442E1,-1.122072190E-1,-2.703602314E0,-3.145781457E-1
1.591169754E1,1.525941342E-1,-1.678605318E0,-2.557081878E-1
1.593155067E1,1.987231821E-1,-1.844289422E0,-2.525142431E-1
1.595140223E1,2.143962383E-1,-1.979098678E0,-2.285334170E-1
1.597125536E1,2.851518989E-1,-1.766569853E0,-1.991420686E-1
1.599110692E1,4.103967249E-1,-1.140363216E0,-1.581791937E-1
1.601096004E1,4.327543974E-1,-9.887464643E-1,-1.110203937E-1
1.603081317E1,4.152312875E-1,-1.065698028E0,-8.093091846E-2
1.605066629E1,4.068537056E-1,-9.846274853E-1,-4.380776361E-2
1.607051786E1,3.225892186E-1,-1.194974542E0,2.473131567E-2
1.609037098E1,2.221455127E-1,-1.472726226E0,1.000597253E-1
1.611022254E1,1.508139074E-1,-1.727177858E0,1.376890242E-1
1.613007567E1,1.151219159E-1,-1.861411095E0,1.275486648E-1
1.614993348E1,8.974482864E-2,-1.952098370E0,9.334021062E-2
1.616980536E1,7.106980681E-2,-1.889999628E0,6.250023842E-2
1.618963348E1,4.017747939E-2,-1.828529119E0,5.688028038E-2
1.620948661E1,-6.492624991E-3,-1.921834350E0,4.244640842E-2
1.622933973E1,-5.071926862E-2,-2.034355879E0,2.155481651E-2
1.624919129E1,-7.141887397E-2,-1.839280367E0,1.207767799E-2
1.626904442E1,-3.001966281E-3,-8.921424747E-1,8.307767101E-3
1.628889754E1,2.633352876E-1,1.488277197E0,1.268854365E-2
1.630874911E1,4.470137358E-1,3.118676424E0,4.398229532E-3
1.632860223E1,4.532794654E-1,3.351538181E0,-7.958701812E-3
1.634845536E1,4.428423941E-1,3.365204334E0,-2.357939817E-2
1.636830692E1,4.094891548E-1,3.284360647E0,-2.644173801E-2
1.638816004E1,-7.545058429E-2,2.050046206E0,1.009498462E-1
1.640801317E1,-5.381548405E-1,-3.756646812E-1,8.714429289E-2
1.642786473E1,-7.948403955E-1,-2.303764820E0,-4.461061582E-2
1.644772411E1,-8.296597004E-1,-2.611832857E0,-1.250528395E-1
1.646757098E1,-7.552562952E-1,-1.926669002E0,-1.075471863E-1
1.648742254E1,-5.895023942E-1,-6.135006547E-1,-5.907939374E-2
1.650727567E1,-4.739092588E-1,2.333505154E-1,-3.654719517E-2
1.652712879E1,-3.608817160E-1,1.031018376E0,1.125737373E-2
1.654698192E1,-1.685988009E-1,2.335250616E0,1.340238303E-1
1.656683348E1,3.331659138E-1,4.617966652E0,3.882485032E-1
1.658668661E1,4.901757240E-1,4.921950817E0,4.489161372E-1
1.660653973E1,5.906019807E-1,4.959667206E0,4.887794554E-1
1.662639129E1,5.514193177E-1,4.559026718E0,4.551818669E-1
1.664625067E1,5.224817395E-1,4.256055355E0,4.382870793E-1
1.666609754E1,4.748691916E-1,3.891735077E0,3.991742432E-1
1.668595067E1,4.003087282E-1,3.430584192E0,3.338814974E-1
1.670580223E1,2.852042615E-1,2.914350748E0,2.485523373E-1
1.672565536E1,1.658411920E-1,2.197613955E0,1.153837144E-1
1.674550848E1,8.876744658E-2,1.571267605E0,8.307767101E-3
1.676536004E1,1.567305624E-2,1.135738134E0,-5.543165654E-2
1.678521317E1,-1.506742686E-1,5.455899239E-1,-1.484926194E-1
1.680506629E1,-2.516241074E-1,4.141666368E-2,-2.077814490E-1
1.682491786E1,-3.100228310E-1,-4.964589179E-1,-2.563888729E-1
1.684477098E1,-3.423463404E-1,-1.030878663E0,-2.868448496E-1
1.686462879E1,-3.658035696E-1,-1.602613688E0,-3.101450205E-1
1.688447567E1,-3.992266059E-1,-2.406407595E0,-3.498861492E-1
1.690432879E1,-4.458094537E-1,-3.569791794E0,-4.154058099E-1
1.692418192E1,-4.781503975E-1,-4.826952457E0,-4.877147973E-1
1.694403504E1,-4.584281743E-1,-5.682652473E0,-5.475097895E-1
1.696388661E1,-5.002288222E-1,-6.894713879E0,-6.553013325E-1
1.698373973E1,-4.977329969E-1,-7.303120613E0,-6.852337122E-1
1.700359286E1,-4.519355595E-1,-7.114206314E0,-6.466096044E-1
1.702344442E1,-1.178097278E-1,-4.888213634E0,-3.666936755E-1
1.704329754E1,1.934522986E-1,-2.756468296E0,-1.724385321E-1
1.706315067E1,2.581167519E-1,-2.408065557E0,-1.073726565E-1
1.708300379E1,2.551147640E-1,-2.565005779E0,-8.306021988E-2
1.710285536E1,3.041585386E-1,-2.295736313E0,-5.778785050E-2
1.712270848E1,3.782303035E-1,-1.789259195E0,-4.028219730E-2
1.714256629E1,4.526686072E-1,-1.235658169E0,-2.612757869E-2
1.716243817E1,4.346567988E-1,-1.295104146E0,1.343903481E-3
1.718226629E1,3.263940215E-1,-1.978889227E0,6.016149744E-2
1.720211942E1,2.278352827E-1,-2.560066462E0,1.258207858E-1
1.722197098E1,-4.886921868E-2,-4.282898426E0,3.298323154E-1
1.724182411E1,-1.809557378E-1,-4.690345287E0,3.069161475E-1
1.726167723E1,-1.652652323E-1,-4.288134098E0,2.733010948E-1
1.728153036E1,-1.429250091E-1,-3.798656702E0,2.350085825E-1
1.730138192E1,-1.037947312E-1,-3.216083288E0,1.899092793E-1
1.732123504E1,-9.721484035E-3,-2.289156437E0,9.091419727E-2
1.734108817E1,7.033676840E-3,-1.892914295E0,5.078908056E-2
1.736093973E1,1.195550524E-2,-1.619316459E0,2.235766686E-2
1.738079286E1,2.033308521E-2,-1.229008436E0,-2.844886621E-3
1.740064598E1,4.581489414E-2,-6.475346088E-1,-1.373574138E-2
1.742049911E1,1.289623827E-1,5.199685097E-1,-4.954989627E-2
1.744035067E1,4.309741557E-1,3.660862923E0,-1.771160066E-1
1.746020379E1,7.533190250E-1,7.294568539E0,-4.407305419E-1
1.748005536E1,8.064293861E-1,8.094557762E0,-5.215567350E-1
1.749991004E1,7.716973424E-1,7.908977032E0,-5.203873515E-1
1.751976161E1,3.013311028E-1,6.353417397E0,-1.982868612E-1
1.753961317E1,-7.763922811E-1,-4.829622746E0,2.034006715E-1
1.755946629E1,-8.896292448E-1,-5.538941860E0,4.775220901E-2
1.757931786E1,-8.961218596E-1,-5.489985466E0,-1.755801216E-2
1.759917098E1,-8.234987259E-1,-4.763666630E0,-2.431243658E-2
1.761902411E1,-6.292435527E-1,-1.893123746E0,3.769911081E-2
1.763888192E1,8.944812417E-2,7.804519176E0,2.704387605E-1
1.765872879E1,3.287502229E-1,9.243368149E0,2.988701761E-1
1.767858348E1,6.918310523E-1,9.872262955E0,3.072652221E-1
1.769843504E1,8.976926208E-1,9.184864998E0,2.751685977E-1
1.771828817E1,9.571211338E-1,8.374839783E0,2.754653096E-1
1.773813973E1,8.992459774E-1,7.503624439E0,2.721491754E-1
1.775799286E1,8.524711728E-1,6.770254135E0,2.788338065E-1
1.777784442E1,7.728841305E-1,6.041038513E0,2.636145353E-1
1.779769754E1,6.550918818E-1,5.267281532E0,2.173807621E-1
1.781755067E1,5.563411713E-1,4.608541965E0,1.733810008E-1
1.783740379E1,4.467344880E-1,3.961705446E0,1.097812131E-1
1.785725536E1,2.022313029E-1,2.650858402E0,-1.367640048E-1
1.787710848E1,5.239478499E-2,1.932166696E0,-2.397558838E-1
1.789696161E1,1.448623277E-2,1.643663764E0,-2.452885658E-1
1.791681317E1,-3.970624134E-2,1.266655207E0,-2.741563320E-1
1.793666629E1,-1.085594818E-1,9.704030752E-1,-2.919935882E-1
1.795651942E1,-1.551946700E-1,8.818799853E-1,-2.752384245E-1
1.797637098E1,-1.733984649E-1,8.687201738E-1,-2.473655194E-1
1.799622411E1,-1.709200889E-1,9.492322206E-1,-2.124065757E-1
1.801607723E1,-1.572716236E-1,1.077182293E0,-1.785995364E-1
1.803593036E1,-1.323308647E-1,1.229968429E0,-1.523148865E-1
1.805578192E1,-1.008974835E-1,1.405129671E0,-1.315978318E-1
1.807563504E1,-7.534586638E-2,1.468572378E0,-1.254717261E-1
1.809548817E1,-5.866051465E-2,1.431868076E0,-1.317025423E-1
1.811533973E1,-2.221804112E-2,1.897783756E0,-1.077391729E-1
1.813519911E1,5.686981082E-1,1.076711082E1,3.770260215E-1
1.815507098E1,7.828848958E-1,1.351471233E1,5.486617088E-1
1.817489911E1,1.602212191E-1,-2.799752474E0,-1.433962435E-1
1.819475067E1,2.496868074E-1,-2.339631319E0,-6.904522330E-2
1.821460379E1,2.208016068E-1,-2.429236412E0,-5.539675057E-2
1.823445692E1,1.870469302E-1,-3.040625334E0,-3.682644665E-2
1.825430848E1,4.098033160E-2,-6.166370392E0,-1.797689125E-2
1.827416161E1,-4.810127243E-2,-7.729469776E0,2.260201424E-2
1.829401473E1,-1.140223593E-1,-8.577560425E0,5.827654526E-2
1.831386629E1,-1.257335246E-1,-8.762164116E0,7.405432314E-2
1.833371942E1,-1.509360671E-1,-8.702665329E0,9.724974632E-2
1.835357254E1,-1.817062348E-1,-8.409816742E0,1.549852341E-1
1.837342567E1,-2.029992491E-1,-8.097542763E0,1.827883273E-1
1.839327723E1,-2.068738788E-1,-7.632377148E0,1.927890629E-1
1.841313036E1,-2.128428966E-1,-7.164803505E0,1.875356287E-1
1.843298348E1,-2.082352340E-1,-6.585929871E0,1.737649739E-1
1.845283504E1,-2.079036236E-1,-6.038158417E0,1.722814441E-1
1.847268817E1,-2.212204784E-1,-5.676630974E0,1.781457514E-1
1.849254129E1,-2.389355749E-1,-5.441709518E0,1.838704348E-1
1.851239442E1,-2.139424533E-1,-4.971046925E0,1.893856823E-1
1.853224598E1,-1.743932962E-1,-4.248881817E0,1.878846884E-1
1.855209911E1,-8.323474973E-2,-2.464090824E0,1.366243660E-1
1.857195067E1,1.572367102E-1,3.334661007E0,-1.746550947E-1
1.859180379E1,3.599916101E-1,7.287325382E0,-4.266457260E-1
1.861165692E1,4.310963154E-1,7.858676434E0,-4.571366310E-1
1.863151004E1,4.349360466E-1,7.544465065E0,-4.213224947E-1
1.865136161E1,3.964340985E-1,7.045806885E0,-3.620336354E-1
1.867121473E1,2.415884733E-1,9.182438850E0,-1.929985136E-1
1.869106629E1,4.942423403E-1,1.309373951E1,-1.146332249E-1
1.871091942E1,-9.394583702E-1,-1.379125977E1,-9.487609565E-2
1.873077254E1,-8.713207245E-1,-1.095036983E1,-1.402721107E-1
1.875062567E1,2.699326277E-1,1.408705807E1,2.951875329E-1
1.877047723E1,-5.176472068E-1,4.027347088E0,2.139773592E-2
1.879033036E1,-4.692841172E-1,3.339547873E0,-2.028072625E-2
1.881018348E1,-3.922452927E-1,3.499978542E0,5.480333697E-3
1.883003504E1,-2.984862030E-1,3.686885834E0,4.714134336E-2
1.884988817E1,-4.251622036E-2,4.216017246E0,1.500808597E-1
1.886974129E1,2.227912843E-1,4.454219818E0,2.722888291E-1
1.888959286E1,3.330437243E-1,4.375330925E0,3.545810878E-1
1.890944598E1,3.335673213E-1,4.004832268E0,3.588222265E-1
1.892929754E1,3.252246380E-1,3.694373369E0,3.628539443E-1
1.894915223E1,3.139323592E-1,3.452121735E0,3.766420484E-1
1.896900379E1,2.756398618E-1,3.137613297E0,3.483677208E-1
1.898885692E1,2.302263826E-1,2.797640562E0,3.034429550E-1
1.900870848E1,1.794547588E-1,2.493935823E0,2.569822669E-1
1.902856161E1,1.193630695E-1,2.031545877E0,1.604830176E-1
1.904841473E1,5.698499829E-2,1.576259255E0,6.250023842E-2
1.906826629E1,-1.291020066E-1,1.192077279E0,-7.213445753E-2
1.908812567E1,-3.020117581E-1,1.130100727E0,-1.381602585E-1
1.910797254E1,-2.876302600E-1,1.127290726E0,-1.273217648E-1
1.912783036E1,-2.447998822E-1,1.235518575E0,-1.015432552E-1
1.914770223E1,-1.857553869E-1,1.467577577E0,-6.326818466E-2
1.916753036E1,-1.276533753E-1,1.715623736E0,-3.312635049E-2
1.918738348E1,-7.607889920E-2,1.970406890E0,-8.901178837E-3
1.920723661E1,-2.230530791E-2,2.300937414E0,1.713913307E-2
1.922708817E1,5.054473504E-2,2.933689117E0,5.695009232E-2
1.924694129E1,1.813047975E-1,4.469229698E0,1.627868563E-1
1.926679442E1,5.410869718E-1,9.569221497E0,6.431363821E-1
1.928664598E1,6.309888959E-1,1.068319511E1,7.791324258E-1
1.930649911E1,6.860889196E-1,9.823673248E0,5.773374438E-1
1.932635223E1,8.693484962E-2,-5.479984760E0,-3.206344247E-1
1.934620379E1,2.002416253E-1,-4.666224957E0,-1.816538721E-1
1.936605692E1,1.610764414E-1,-4.575712204E0,-1.605877429E-1
1.938591004E1,5.064945295E-2,-5.503128052E0,-1.341460049E-1
1.940576161E1,-3.045599461E-1,-8.918405533E0,-6.031857803E-2
1.942561473E1,-9.783617854E-1,-1.431377697E1,9.566149861E-2
1.944546786E1,-1.016409993E0,-1.405857468E1,1.384395212E-1
1.946531942E1,-8.988794684E-1,-1.271863270E1,1.294859797E-1
1.948517254E1,-7.641400695E-1,-1.131507397E1,9.906488657E-2
1.950502567E1,-6.727895141E-1,-1.020530701E1,8.520697057E-2
1.952487723E1,-6.276378632E-1,-9.383936882E0,9.341002256E-2
1.954473036E1,-6.116681099E-1,-8.749876976E0,9.688322991E-2
1.956458348E1,-5.671098232E-1,-7.955070972E0,8.674286306E-2
1.958443661E1,-5.053775311E-1,-7.098131657E0,7.000515610E-2
1.960428817E1,-4.360007048E-1,-6.189670563E0,4.429645464E-2
1.962414598E1,-3.745650947E-1,-5.387674332E0,2.274163999E-2
1.964399442E1,-3.355395496E-1,-4.803617477E0,1.057669520E-2
1.966384598E1,-3.194127083E-1,-4.376919270E0,3.577925032E-3
1.968369911E1,-2.800206244E-1,-3.739123583E0,-6.195918657E-3
1.970355223E1,-1.807288378E-1,-2.568217039E0,-2.968805097E-2
1.972340536E1,1.670280099E-1,1.102210283E0,-1.442514658E-1
1.974325692E1,5.174202919E-1,5.430853844E0,-3.817209601E-1
1.976311004E1,6.331880093E-1,6.846856594E0,-4.588645101E-1
1.978296317E1,6.586349010E-1,7.118290424E0,-4.596324563E-1
1.980281473E1,6.431363821E-1,6.964509487E0,-4.328067601E-1
1.982266786E1,4.932649434E-1,6.703320980E0,-3.147352338E-1
1.984252098E1,-5.947732925E-1,-1.996098161E0,7.625343651E-2
1.986237254E1,-9.877865314E-1,-6.990968704E0,-8.836601675E-2
1.988222567E1,-9.621476531E-1,-6.255277634E0,-2.054252476E-1
1.990207879E1,-8.530296683E-1,-4.976212978E0,-1.710248142E-1
1.992193661E1,-7.168067098E-1,-2.995403767E0,-1.001819000E-1
1.994178348E1,-6.458939910E-1,-1.617326856E0,-5.166174471E-2
1.996163661E1,-4.649033546E-1,1.384115934E0,1.018225104E-1
1.998148817E1,-1.906597614E-1,4.975689411E0,3.179466426E-1
2.000134129E1,5.479460955E-1,1.004506779E1,6.633647680E-1
2.002119442E1,7.410668135E-1,9.477312088E0,6.228207350E-1
2.004104598E1,7.767063975E-1,8.571381569E0,5.796587467E-1
2.006089911E1,7.416776419E-1,7.643896103E0,5.314876437E-1
2.008075223E1,6.976081133E-1,6.900892258E0,5.060756803E-1
2.010060536E1,6.517408490E-1,6.242082596E0,4.793023169E-1
2.012046317E1,5.713858604E-1,5.562957764E0,4.283910692E-1
2.014033348E1,4.868072271E-1,4.907097816E0,3.672696352E-1
2.016016317E1,4.060857594E-1,4.325833321E0,3.105813265E-1
2.018001473E1,2.205048949E-1,3.146497011E0,1.059763953E-1
2.019987411E1,9.756390750E-2,2.346438169E0,-1.715658605E-2
2.021971942E1,3.255039081E-2,1.923911333E0,-5.871287733E-2
2.023957254E1,-6.382668763E-2,1.512607098E0,-9.978047013E-2
2.025942567E1,-1.547234356E-1,1.145459533E0,-1.332733482E-1
2.027927723E1,-1.812873483E-1,8.983384371E-1,-1.413018554E-1
2.029913036E1,-1.727875918E-1,7.630230188E-1,-1.319818050E-1
2.031898348E1,-1.572716236E-1,6.679549813E-1,-1.184729487E-1
2.033883661E1,-1.435882300E-1,5.899910927E-1,-1.086991057E-1
2.035868817E1,-1.431519091E-1,4.092099071E-1,-1.131147891E-1
2.037854129E1,-2.004685104E-1,-4.915545285E-1,-1.762782484E-1
2.039839442E1,-8.720014095E-1,-9.468463898E0,-8.062199354E-1
2.041824754E1,-1.005728483E0,-1.215269279E1,-1.013355613E0
2.043809911E1,-9.269443750E-1,-1.152437401E1,-9.611877203E-1
2.045795223E1,-8.364490271E-1,-1.058823204E1,-8.716174364E-1
2.047780536E1,-2.161415666E-1,-5.658496857E0,-3.175277412E-1
2.049765692E1,2.277305573E-1,-1.930142164E0,-1.387187690E-1
2.051751004E1,1.807812005E-1,-2.778389692E0,-1.520705372E-1
2.053736317E1,1.735380888E-1,-3.093351841E0,-1.470789015E-1
2.055721473E1,2.236115783E-1,-2.845951319E0,-1.457349956E-1
2.057706942E1,3.314205706E-1,-2.123402357E0,-1.570272744E-1
2.059692098E1,3.327121139E-1,-2.133403301E0,-1.321737766E-1
2.061677879E1,3.171263337E-1,-2.165220499E0,-1.044405028E-1
2.063662567E1,2.730393112E-1,-2.381205082E0,-6.688101590E-2
2.065647879E1,2.376091182E-1,-2.453933001E0,-2.661627159E-2
2.067633192E1,1.445656270E-1,-2.942084074E0,9.560913593E-2
2.069618348E1,3.888593614E-2,-3.483834267E0,1.655968428E-1
2.071603661E1,9.180432186E-3,-3.357873917E0,1.581791937E-1
2.073588973E1,1.279326342E-2,-2.973953724E0,1.387885809E-1
2.075574129E1,3.267256171E-2,-2.467180014E0,1.123992056E-1
2.077559442E1,4.070107639E-2,-2.075737476E0,9.129817039E-2
2.079544754E1,4.045673087E-2,-1.808510184E0,7.771950960E-2
2.081529911E1,3.176499158E-2,-1.619246602E0,6.763150543E-2
2.083515223E1,5.117305368E-2,-1.063010216E0,3.954916075E-2
2.085500536E1,1.233424172E-1,2.589370608E-1,-3.611086309E-2
2.087485692E1,3.797661960E-1,3.643235207E0,-2.359336019E-1
2.089471004E1,6.478661895E-1,6.765471935E0,-4.514643252E-1
2.091456317E1,7.499679923E-1,7.673392296E0,-5.126032233E-1
2.093441629E1,7.433182597E-1,7.470498085E0,-4.930555224E-1
2.095426786E1,7.199134231E-1,7.058460712E0,-4.582012892E-1
2.097412098E1,5.625545382E-1,6.478312969E0,-3.513522446E-1
2.099397411E1,1.478468478E-1,5.702863216E0,-1.494700015E-1
2.101382567E1,-1.987057328E-1,3.860685825E0,-4.056145251E-2
2.103367879E1,-4.075692892E-1,2.343837500E0,-6.003932562E-3
2.105353192E1,-3.086440265E-1,3.104644060E0,5.969026126E-3
2.107338504E1,-1.590344012E-1,4.192298412E0,6.668902934E-2
2.109323661E1,1.541300267E-1,6.963008404E0,2.974041104E-1
2.111309442E1,-5.689773243E-3,4.811174393E0,2.012713701E-1
2.113296629E1,2.197544128E-1,3.947725296E0,1.724210829E-1
2.115279442E1,4.025252759E-1,3.888244390E0,2.552020550E-1
2.117264754E1,5.091823339E-1,3.814574242E0,3.426953852E-1
2.119250067E1,5.625720024E-1,3.533192158E0,3.827681541E-1
2.121235223E1,5.184500813E-1,3.161402225E0,3.663620651E-1
2.123220536E1,4.696506560E-1,2.826578140E0,3.460289836E-1
2.125205848E1,3.936415613E-1,2.465015650E0,2.978753448E-1
2.127191161E1,2.914176285E-1,2.058895111E0,2.197544128E-1
2.129176317E1,8.243189752E-2,1.342419982E0,2.794272080E-2
2.131162098E1,-1.340412796E-1,5.915619135E-1,-1.677086800E-1
2.133146786E1,-1.866978705E-1,3.303559124E-1,-2.086366564E-1
2.135132098E1,-1.988977194E-1,1.616524011E-1,-2.236290425E-1
2.137117411E1,-2.338566631E-1,-7.564257085E-2,-2.605427504E-1
2.139102567E1,-2.663547099E-1,-2.327745557E-1,-2.750115395E-1
2.141087879E1,-2.654994726E-1,-2.512750626E-1,-2.549577057E-1
2.143073192E1,-2.397907823E-1,-2.376265824E-1,-2.263168395E-1
2.145058973E1,-2.140471786E-1,-2.397035211E-1,-2.027199864E-1
2.147043661E1,-1.940457076E-1,-2.787465453E-1,-1.876927018E-1
2.149028973E1,-1.815316975E-1,-3.646690845E-1,-1.814269722E-1
2.151014129E1,-1.772556454E-1,-5.142612457E-1,-1.829279512E-1
2.152999442E1,-1.841496825E-1,-7.741407752E-1,-1.955292374E-1
2.154984754E1,-2.327222079E-1,-1.427225590E0,-2.460914254E-1
2.156970067E1,-3.748967350E-1,-2.606265306E0,-3.197617829E-1
2.158955223E1,-5.289045572E-1,-4.354212284E0,-3.969751298E-1
2.160941161E1,-6.672917008E-1,-6.343573570E0,-4.687256217E-1
2.162925692E1,-2.968455851E-1,-3.816424131E0,-2.620961070E-1
2.164911004E1,4.878195375E-2,-2.068145275E0,-1.602561325E-1
2.166896317E1,8.803440630E-2,-2.390525103E0,-1.595056355E-1
2.168881629E1,8.960520476E-2,-2.921366930E0,-1.696460098E-1
2.170866786E1,3.441265821E-1,-2.821499348E0,-3.060085773E-1
2.172852098E1,5.481380820E-1,-2.128708363E0,-3.132342398E-1
2.174837411E1,4.314453900E-1,-2.464684248E0,-2.439795732E-1
2.176822567E1,2.452885658E-1,-2.987096071E0,-1.189441904E-1
2.178807879E1,6.789330859E-3,-4.020679951E0,2.904227935E-2
2.180793192E1,-3.998549283E-2,-4.158124924E0,8.518952131E-2
2.182778504E1,-6.609562039E-2,-4.219979286E0,1.038819999E-1
2.184763661E1,-7.927285135E-2,-4.100982666E0,1.090656221E-1
2.186748973E1,-8.566076308E-2,-3.869377375E0,1.048593819E-1
2.188734286E1,-7.220426947E-2,-3.475125074E0,7.630579174E-2
2.190719442E1,-6.368706375E-2,-3.072268248E0,5.738642439E-2
2.192704754E1,-6.438519806E-2,-2.773746967E0,5.007349700E-2
2.194690067E1,-4.827580601E-2,-2.419532537E0,4.330161959E-2
2.196675223E1,-2.382374369E-2,-1.956496596E0,2.694788389E-2
2.198660536E1,9.826203808E-3,-1.227874041E0,-8.709193207E-3
2.200645848E1,8.590510488E-2,-2.892010473E-2,-7.534586638E-2
2.202631161E1,1.640958488E-1,1.235570908E0,-1.581442803E-1
2.204616317E1,2.128428966E-1,2.187770128E0,-2.113768309E-1
2.206602254E1,2.346420586E-1,2.840209246E0,-2.245715111E-1
2.208586942E1,2.436654121E-1,3.421438694E0,-2.018996924E-1
2.210572098E1,2.087937444E-1,3.810524940E0,-1.471312493E-1
2.212559911E1,1.170243248E-1,3.793403387E0,-8.609709144E-2
2.214542723E1,-5.700245500E-2,3.227392912E0,-3.110176697E-2
2.216527879E1,-3.659257293E-1,1.547094703E0,-7.470009383E-3
2.218513192E1,-6.010390520E-1,-4.142364562E-1,-1.022937447E-1
2.220498504E1,-5.256582499E-1,1.782155633E-1,-1.311091334E-1
2.222483661E1,-4.612381458E-1,7.621154785E-1,-1.217890754E-1
2.224468973E1,-4.567177594E-1,6.414434314E-1,-1.758593768E-1
2.226454286E1,-4.237833917E-1,1.013687253E0,-1.396961510E-1
2.228439598E1,-2.918539643E-1,1.833241463E0,-7.731808722E-2
2.230424754E1,1.132195070E-1,3.258355141E0,2.385865152E-2
2.232410067E1,2.324429452E-1,3.532616138E0,8.234463632E-2
2.234395379E1,2.997603118E-1,3.676012516E0,1.502553970E-1
2.236380692E1,3.169343472E-1,3.663585663E0,2.032261342E-1
2.238365848E1,2.970026731E-1,3.421561003E0,2.012888193E-1
2.240351161E1,2.834763825E-1,3.248808146E0,2.106786966E-1
2.242336473E1,2.654645741E-1,3.014497757E0,2.036275566E-1
2.244321629E1,2.069087774E-1,2.761843920E0,1.856332123E-1
2.246306942E1,1.189616397E-1,2.525840521E0,1.666440368E-1
2.248292254E1,4.286528751E-2,2.327937603E0,1.531002820E-1
2.250277567E1,-1.553343050E-2,2.172149420E0,1.475152224E-1
2.252262723E1,-7.112216949E-2,1.989762664E0,1.397136003E-1
2.254248036E1,-1.015607119E-1,1.707089067E0,1.056796834E-1
2.256233348E1,-1.434311569E-1,1.264560819E0,2.642428502E-2
2.258218504E1,-2.005906850E-1,7.347137928E-1,-7.368779927E-2
2.260204286E1,-2.439795732E-1,3.342654705E-1,-1.397485137E-1
2.262189129E1,-2.678207755E-1,5.201081280E-3,-1.754230410E-1
2.264174286E1,-2.784672678E-1,-4.556705654E-1,-2.103994340E-1
2.266159598E1,-2.784847319E-1,-1.051281571E0,-2.477494925E-1
2.268144911E1,-2.695660889E-1,-1.728766084E0,-2.862514555E-1
2.270130067E1,-2.495995313E-1,-2.353943110E0,-3.162711263E-1
2.272115379E1,-2.136632055E-1,-2.853735447E0,-3.279997110E-1
2.274100692E1,-2.216044515E-1,-3.527240515E0,-3.424859643E-1
2.276086473E1,-2.383072525E-1,-4.318346024E0,-3.567976654E-1
2.278071161E1,-2.409427017E-1,-5.047806263E0,-3.676361442E-1
2.280056473E1,-9.267698042E-3,-2.844677210E0,-1.187172979E-1
2.282041629E1,2.456900030E-1,-6.469062567E-1,5.314527452E-2
2.284026942E1,2.258630544E-1,-1.092872858E0,5.897467583E-2
2.286012254E1,2.493726462E-1,-1.279099464E0,6.126105785E-2
2.287997411E1,3.124139309E-1,-1.063394189E0,5.836381018E-2
2.289982879E1,4.980471432E-1,2.583959997E-1,6.365215778E-2
2.291967879E1,3.777939677E-1,-5.495169163E-1,8.827875555E-2
2.293953348E1,2.224771231E-1,-1.756918192E0,1.300270259E-1
2.295938504E1,-4.698426276E-2,-3.829741001E0,2.260026783E-1
2.297923817E1,-1.791231334E-1,-4.897952557E0,2.724982500E-1
2.299908973E1,-2.277131081E-1,-5.178374290E0,2.664245069E-1
2.301894442E1,-2.407507151E-1,-5.074265480E0,2.483429015E-1
2.303879598E1,-2.317448109E-1,-4.730226040E0,2.277131081E-1
2.305864911E1,-1.398532391E-1,-3.698213100E0,1.553168446E-1
2.307850067E1,-4.529129341E-2,-2.675031185E0,7.934267074E-2
2.309836004E1,1.605702913E-3,-2.079524994E0,2.151990868E-2
2.311823036E1,3.722787276E-2,-1.595370531E0,-3.092723340E-2
2.313805848E1,9.524261951E-2,-7.927983403E-1,-8.847074211E-2
2.315791161E1,1.500634104E-1,1.256986111E-1,-1.310393214E-1
2.317776473E1,2.253743708E-1,1.277895212E0,-1.606226563E-1
2.319761629E1,3.095341325E-1,2.442518473E0,-1.858950108E-1
2.321746942E1,4.589692354E-1,3.949819803E0,-1.928763390E-1
2.323732254E1,5.570392609E-1,4.788904190E0,-1.926843524E-1
2.325717411E1,5.703212619E-1,4.918459892E0,-1.798387319E-1
2.327702723E1,5.854532719E-1,5.053461075E0,-1.481609941E-1
2.329688036E1,5.320461392E-1,5.032656670E0,-9.053023160E-2
2.331673348E1,2.585705221E-1,5.406139851E0,5.642649531E-2
2.333658504E1,5.508258939E-2,5.241555214E0,1.135685742E-1
2.335643817E1,-1.624377966E-1,3.942821026E0,9.630727023E-2
2.337628973E1,-2.001368999E-1,2.977252483E0,5.979498103E-2
2.339614911E1,-2.038195431E-1,2.121953726E0,1.640609466E-3
2.341599598E1,-1.612684280E-1,1.864256024E0,-7.033676840E-3
2.343584911E1,-6.667158008E-2,2.021422863E0,3.897320107E-2
2.345570692E1,-5.047492310E-2,1.840694070E0,4.389503226E-2
2.347555379E1,-4.105014354E-2,1.657242537E0,4.525638744E-2
2.349540692E1,3.310889751E-2,1.808457851E0,1.093448773E-1
2.351525848E1,8.316493779E-2,1.830885291E0,1.527337581E-1
2.353511161E1,1.218239814E-1,1.696739316E0,1.609717160E-1
2.355496473E1,1.645321846E-1,1.478468418E0,1.467298269E-1
2.357481786E1,1.665393114E-1,1.282939196E0,1.293114424E-1
2.359467567E1,1.484227926E-1,1.152161598E0,1.219810620E-1
2.361452254E1,1.272694021E-1,1.042031407E0,1.149299294E-1
2.363437567E1,4.914847016E-2,7.276102901E-1,4.398229718E-2
2.365422723E1,-1.374795884E-1,7.325147092E-2,-1.199390292E-1
2.367408036E1,-3.544938266E-1,-5.223944783E-1,-2.530378401E-1
2.369393192E1,-4.794419408E-1,-7.664962411E-1,-2.848202884E-1
2.371378504E1,-5.051157475E-1,-8.016122580E-1,-2.685188949E-1
2.373363817E1,-5.322032571E-1,-8.052600026E-1,-2.457249016E-1
2.375349129E1,-5.407902598E-1,-8.523140550E-1,-2.339788377E-1
2.377334442E1,-5.184326172E-1,-9.189332724E-1,-2.279399931E-1
2.379319598E1,-4.890761673E-1,-1.047214985E0,-2.318320870E-1
2.381304911E1,-4.662996233E-1,-1.225029111E0,-2.448347807E-1
2.383290067E1,-4.560021758E-1,-1.496200919E0,-2.722364664E-1
2.385275379E1,-4.594579339E-1,-1.860730410E0,-3.133389652E-1
2.387260692E1,-4.693539441E-1,-2.329054594E0,-3.648959994E-1
2.389246004E1,-4.632103741E-1,-2.742086887E0,-4.075692892E-1
2.391231161E1,-4.379380047E-1,-3.038827658E0,-4.347789586E-1
2.393216473E1,-4.251272976E-1,-3.434197187E0,-4.731762111E-1
2.395201786E1,-2.041162550E-1,-2.287323713E0,-2.865132391E-1
2.397186942E1,1.151568219E-1,-8.164650202E-1,-9.086184204E-2
2.399172254E1,1.943947673E-1,-5.950874686E-1,-5.085889250E-2
2.401157567E1,1.813746095E-1,-8.228703737E-1,-6.407103688E-2
2.403142723E1,1.325752139E-1,-1.180017114E0,-8.464846760E-2
2.405128036E1,5.037020147E-2,-1.731261849E0,-1.263094842E-1
2.407113192E1,-3.090978041E-2,-2.568304300E0,-2.405587286E-1
2.409099129E1,-6.236061454E-2,-3.223309040E0,-3.915646076E-1
2.411086317E1,-5.440191180E-2,-3.185941458E0,-4.102221727E-1
2.413068973E1,-4.717624933E-2,-3.112951756E0,-4.219857156E-1
2.415054911E1,-4.127703607E-2,-2.969433308E0,-4.123340249E-1
2.417039598E1,-9.372418374E-2,-3.060714006E0,-4.032059610E-1
2.419024911E1,-2.166651785E-1,-3.623024225E0,-4.379031062E-1
2.421010067E1,-2.609616220E-1,-3.705508471E0,-4.495793581E-1
2.422995379E1,-2.625847757E-1,-3.538428068E0,-4.395088255E-1
2.424980692E1,-2.433338016E-1,-3.238458395E0,-4.117929935E-1
2.426965848E1,-2.059313953E-1,-2.859547377E0,-3.633426428E-1
2.428951161E1,-1.609542668E-1,-2.265873671E0,-2.932676673E-1
2.430936473E1,-1.193805188E-1,-1.484768987E0,-2.137504667E-1
2.432921786E1,-8.808676898E-2,-6.727371812E-1,-1.352630109E-1
2.434906942E1,-1.560324337E-2,5.613851547E-1,-2.261946723E-2
2.436892254E1,5.916666240E-2,1.676196814E0,6.656685472E-2
2.438877567E1,1.208815053E-1,2.507950783E0,1.247561350E-1
2.440862723E1,1.382998824E-1,2.911244154E0,1.570098251E-1
2.442848036E1,1.281769872E-1,3.110508442E0,1.829279512E-1
2.444833348E1,1.178097278E-1,3.317451954E0,2.150071114E-1
2.446818504E1,1.153313592E-1,3.622587919E0,2.563365102E-1
2.448803817E1,1.134463996E-1,3.817646027E0,2.765299678E-1
2.450789129E1,9.567894787E-2,3.788987637E0,2.615899444E-1
2.452774442E1,-2.349213138E-2,3.100874186E0,1.730493903E-1
2.454759598E1,-2.374694943E-1,1.184031367E0,-1.114916354E-1
2.456744911E1,-3.128328025E-1,-2.851693332E-1,-3.965038955E-1
2.458730692E1,-3.108431399E-1,-2.488490492E-1,-4.109028578E-1
2.460715379E1,-3.116459846E-1,-2.034181207E-1,-4.112693965E-1
2.462700692E1,-2.909289300E-1,-1.113694608E-1,-4.259301424E-1
2.464686004E1,-2.647664547E-1,1.123119369E-1,-4.140793681E-1
2.466671161E1,-2.481683642E-1,3.654021323E-1,-3.801850677E-1
2.468656473E1,-2.455154657E-1,6.591933966E-1,-3.099006712E-1
2.470641786E1,-2.572789788E-1,1.067321181E0,-1.996482164E-1
2.472627098E1,-2.665641308E-1,1.399055958E0,-1.003040746E-1
2.474612254E1,-2.651853263E-1,1.699741244E0,-1.017526910E-2
2.476597567E1,-2.062804699E-1,2.439586401E0,1.530828327E-1
2.478582879E1,-6.445501000E-2,3.135187387E0,2.941927016E-1
2.480568036E1,-2.659881860E-2,3.079965115E0,2.933549285E-1
2.482553348E1,-2.460914291E-2,2.900265932E0,2.719397545E-1
2.484539129E1,-3.483677283E-2,2.705050945E0,2.527236640E-1
2.486523817E1,-4.564036056E-2,2.503797054E0,2.339962870E-1
2.488509129E1,-5.576327071E-2,2.331149101E0,2.212902904E-1
2.490494442E1,-5.368632823E-2,2.069244862E0,1.798910797E-1
2.492479754E1,-6.723008305E-2,1.503217220E0,6.880088151E-2
2.494464911E1,-3.954916075E-2,7.202799320E-1,-8.049458265E-2
2.496450223E1,3.544763848E-2,-3.412816823E-1,-2.704038620E-1
2.498435536E1,1.311614960E-1,-1.376663327E0,-4.352676570E-1
2.500420692E1,2.228261828E-1,-2.097658873E0,-5.352226496E-1
2.502406004E1,3.153809905E-1,-2.647036076E0,-6.069382429E-1
2.504391317E1,3.966958821E-1,-3.074379921E0,-6.505191326E-1
2.506376629E1,4.659854472E-1,-3.455804348E0,-6.747966409E-1
2.508362254E1,5.240874887E-1,-3.752929211E0,-6.848497391E-1
2.510347098E1,5.676857829E-1,-3.837769508E0,-6.653892994E-1
2.512332411E1,5.869542360E-1,-3.649780273E0,-6.068509817E-1
2.514317567E1,5.773898363E-1,-3.151785374E0,-5.064421892E-1
2.516302879E1,5.572312474E-1,-2.463985920E0,-3.880739510E-1
2.518288036E1,5.366887450E-1,-1.770723820E0,-2.751336992E-1
2.520273348E1,5.315051079E-1,-1.367657423E0,-2.045351416E-1
2.522258661E1,5.337216854E-1,-1.204102635E0,-1.593136489E-1
2.524243973E1,5.257106423E-1,-1.072452426E0,-1.060287505E-1
2.526229286E1,5.163207650E-1,-1.047232509E0,-5.878268927E-2
2.528214442E1,5.090427399E-1,-1.024298787E0,-3.099704720E-2
2.530199754E1,5.117480159E-1,-9.885370135E-1,-3.405137360E-2
2.532184911E1,5.116083622E-1,-9.382889867E-1,-5.042256042E-2
2.534170223E1,5.008396506E-1,-9.338907599E-1,-5.612978712E-2
2.536155536E1,4.790230691E-1,-9.386031628E-1,-5.485569686E-2
2.538140692E1,4.600513279E-1,-1.100150824E0,-6.394886225E-2
2.540126004E1,4.415857494E-1,-1.303464293E0,-7.686430216E-2
2.542111317E1,4.167148173E-1,-1.631516337E0,-1.061509252E-1
2.544096473E1,3.883881271E-1,-1.741349936E0,-1.459444314E-1
2.546081786E1,3.530277610E-1,-1.670192838E0,-1.663298756E-1
2.548067098E1,3.160965741E-1,-1.549660325E0,-1.638864130E-1
2.550052254E1,2.835811079E-1,-1.341128469E0,-1.474803239E-1
2.552037567E1,2.453583926E-1,-1.063498974E0,-1.263094842E-1
2.554023348E1,1.959655732E-1,-7.698472738E-1,-1.078264415E-1
2.556008036E1,1.370432526E-1,-4.365592003E-1,-9.648180008E-2
2.557993348E1,6.784094870E-2,2.548180753E-3,-8.567821234E-2
2.559978661E1,-1.645845547E-2,5.508782864E-1,-5.839871615E-2
2.561963817E1,-1.070584953E-1,1.122176886E0,-1.750565320E-2
2.563949129E1,-1.922480166E-1,1.589488745E0,2.256710641E-2
2.565934442E1,-2.736501694E-1,2.006954193E0,5.166174471E-2
2.567919754E1,-3.651577830E-1,2.547081232E0,6.618288159E-2
2.569904911E1,-4.474675059E-1,3.092636108E0,6.319837272E-2
2.571890223E1,-5.052902699E-1,3.316736460E0,6.087708473E-2
2.573875536E1,-5.473352671E-1,3.228353024E0,6.428047270E-2
2.575860692E1,-5.727123618E-1,2.804970980E0,6.736970693E-2
2.577846004E1,-5.378929973E-1,2.035298347E0,4.042182490E-2
2.579831317E1,-4.239230156E-1,1.104514122E0,-5.003859103E-2
2.581816629E1,-3.021514118E-1,3.493625522E-1,-1.592961997E-1
2.583801786E1,-2.740341425E-1,2.219535261E-1,-2.005034238E-1
2.585787098E1,-2.559700012E-1,1.957910359E-1,-2.416757345E-1
2.587772411E1,-2.536486983E-1,2.407507151E-1,-2.614503205E-1
2.589757567E1,-3.084171414E-1,5.463753343E-1,-2.310641408E-1
2.591742879E1,-3.964515328E-1,9.930225015E-1,-1.674992442E-1
2.593728192E1,-5.067039728E-1,1.552801967E0,-9.091419727E-2
2.595713348E1,-6.246010065E-1,2.227319479E0,-1.586504281E-2
2.597698661E1,-7.627612352E-1,3.157928944E0,7.482226193E-2
2.599683973E1,-9.050405025E-1,4.552691460E0,2.198591232E-1
2.601669286E1,-8.080525398E-1,4.803442955E0,2.522873282E-1
2.603654442E1,-7.299315929E-1,4.588295937E0,2.413266748E-1
2.605639754E1,-6.910805702E-1,4.397409439E0,2.401747555E-1
2.607625536E1,-6.386334300E-1,4.087246895E0,2.300343961E-1
2.609610223E1,-5.877745152E-1,3.713886023E0,2.061582953E-1
2.611595536E1,-5.453281403E-1,3.371557236E0,1.720545590E-1
2.613580848E1,-5.236860514E-1,3.161000729E0,1.476373971E-1
2.615566004E1,-5.324475765E-1,2.398536205E0,2.092649788E-2
2.617551317E1,-4.077787101E-1,1.320324063E0,-9.370672703E-2
2.619536629E1,-2.158797681E-1,3.066543341E-1,-1.566956639E-1
2.621521786E1,6.968576312E-1,-4.101069927E0,-3.622605503E-1
2.623507567E1,1.333553672E0,-6.999957085E0,-4.544837475E-1
2.625492411E1,1.679460526E0,-8.542130470E0,-4.950451851E-1
2.627477723E1,1.515748620E0,-7.542649746E0,-4.218460917E-1
2.629462879E1,1.254455447E0,-5.972516537E0,-3.201282918E-1
2.631448192E1,1.039937019E0,-4.596237183E0,-2.386388630E-1
2.633433504E1,9.919927716E-1,-4.159328938E0,-2.000321895E-1
2.635418661E1,1.025485635E0,-4.274520874E0,-1.816364080E-1
2.637403973E1,1.050723076E0,-4.356411457E0,-1.601339579E-1
2.639389129E1,1.020249605E0,-4.087334156E0,-1.272170544E-1
2.641374442E1,9.802292585E-1,-3.798726559E0,-9.023351967E-2
2.643359754E1,9.647656679E-1,-3.727900982E0,-4.993386939E-2
2.645345067E1,9.401041269E-1,-3.654091120E0,-6.841690745E-3
2.647330379E1,9.134529829E-1,-3.617194891E0,5.323254317E-2
2.649315536E1,8.785987496E-1,-3.504987717E0,9.065239877E-2
2.651300848E1,8.323475122E-1,-3.325550318E0,1.335525960E-1
2.653286161E1,7.509977221E-1,-2.902255535E0,1.490336657E-1
2.655271317E1,6.535559893E-1,-2.348113537E0,1.373748630E-1
2.657257098E1,5.747020245E-1,-1.898097873E0,1.366069168E-1
2.659241786E1,5.193401575E-1,-1.657137752E0,1.481260955E-1
2.661227098E1,4.786390960E-1,-1.617396593E0,1.539729387E-1
2.663212411E1,4.439070523E-1,-1.666265845E0,1.462585926E-1
2.665197567E1,4.183205068E-1,-1.863278627E0,1.306902468E-1
2.667182879E1,3.837629855E-1,-1.848565459E0,1.161342114E-1
2.669168192E1,3.400948644E-1,-1.654711723E0,1.089783609E-1
2.671153348E1,2.708052993E-1,-1.307426095E0,8.779006451E-2
2.673138661E1,1.595405489E-1,-6.581462026E-1,5.089380220E-2
2.675123973E1,1.830850355E-2,1.664869636E-1,1.361356769E-2
2.677109129E1,-1.084722131E-1,8.788082004E-1,-7.260569837E-3
2.679094442E1,-2.088460922E-1,1.408463240E0,-1.623156108E-2
2.681079754E1,-2.812423408E-1,1.750879407E0,6.108652335E-3
2.683065067E1,-3.801850677E-1,2.330224037E0,1.054178830E-2
2.685050223E1,-5.184326172E-1,3.178035021E0,-1.626646891E-2
2.687035536E1,-7.512071729E-1,4.705843925E0,-4.831071198E-2
2.689020848E1,-9.629853964E-1,6.176545620E0,-8.597491682E-2
2.691006004E1,-1.027894258E0,6.462238789E0,-7.909832150E-2
2.692991942E1,7.029837370E-1,-6.947422504E0,4.593706504E-2
2.694976629E1,4.916243553E-1,-5.936336040E0,-1.253844500E-1
2.696961942E1,3.380702734E-1,-4.766040325E0,-1.295034289E-1
2.698947098E1,2.439446747E-1,-4.011551857E0,-1.143539697E-1
2.700933036E1,-1.100430116E-1,-1.723076344E0,-9.356710315E-2
2.702917723E1,-3.316474557E-1,-2.879618704E-1,-5.965535343E-2
2.704902879E1,-5.212774873E-1,9.301208854E-1,-7.120943163E-3
2.706888817E1,-7.342600226E-1,2.290709734E0,8.740609139E-2
2.708873504E1,-9.703681469E-1,3.788813114E0,1.888795346E-1
2.710858661E1,-1.133469224E0,4.877287865E0,2.620262802E-1
2.712843973E1,-1.317008018E0,6.349699974E0,3.471285403E-1
2.714829286E1,-1.365545630E0,7.816858292E0,4.000643790E-1
2.716814598E1,-1.201676607E0,8.261323929E0,4.020016789E-1
2.718799754E1,-1.058751583E0,7.724251270E0,3.742858469E-1
2.720785067E1,-9.498779774E-1,7.032664776E0,3.378259242E-1
2.722770379E1,-8.613898158E-1,6.266831398E0,2.848028243E-1
2.724755536E1,-7.900232673E-1,5.576135159E0,2.376440316E-1
2.726740848E1,-7.281339169E-1,5.004330158E0,2.069960535E-1
2.728726161E1,-6.528403759E-1,3.882100821E0,9.939649701E-2
2.730711473E1,-4.980122447E-1,2.210983038E0,-6.679374725E-2
2.732696629E1,-1.930857748E-1,1.103397161E-1,-2.621833682E-1
2.734681942E1,7.951720059E-2,-1.304947734E0,-3.644247353E-1
2.736667098E1,4.405210912E-1,-2.872794390E0,-4.843288660E-1
2.738652411E1,7.304552197E-1,-3.998985529E0,-5.508957505E-1
2.740637723E1,8.757887483E-1,-4.463487625E0,-5.494121909E-1
2.742623036E1,9.200503230E-1,-4.486019611E0,-5.079256892E-1
2.744608192E1,9.595296383E-1,-4.512426376E0,-4.868770540E-1
2.746593504E1,9.611353874E-1,-4.348348141E0,-4.696855545E-1
2.748578817E1,9.325293899E-1,-4.004151821E0,-4.445702732E-1
2.750563973E1,8.890881538E-1,-3.557591915E0,-4.067489803E-1
2.752549286E1,8.391193748E-1,-3.081169367E0,-3.644596636E-1
2.754534598E1,7.880859971E-1,-2.577170610E0,-3.279299140E-1
2.756519754E1,6.185621619E-1,-1.090586424E0,-2.987130880E-1
2.758505067E1,5.038241744E-1,-6.909758598E-2,-2.757969201E-1
2.760490379E1,5.023057461E-1,-9.840166569E-2,-2.368935347E-1
2.762476161E1,5.202826262E-1,-2.657787502E-1,-2.004336119E-1
2.764460848E1,5.430417657E-1,-4.407305419E-1,-1.710597128E-1
2.766446161E1,5.396034718E-1,-4.274660349E-1,-1.546536237E-1
2.768431317E1,5.296725035E-1,-3.585604429E-1,-1.605528444E-1
2.770416629E1,5.113465786E-1,-2.446427941E-1,-1.975014508E-1
2.772401942E1,4.593357444E-1,-2.708750963E-2,-2.130348831E-1
2.774387254E1,3.996105790E-1,1.917418689E-1,-2.260026783E-1
2.776372411E1,3.475299478E-1,3.051010072E-1,-2.329316437E-1
2.778357723E1,3.464827538E-1,1.650034338E-1,-2.347118706E-1
2.780343036E1,4.128750861E-1,-2.397907823E-1,-2.462484986E-1
2.782328192E1,5.270196199E-1,-8.213868737E-1,-2.501929402E-1
2.784313504E1,5.943195224E-1,-1.110151529E0,-2.707005739E-1
2.786298661E1,6.268524528E-1,-1.234139800E0,-2.785370946E-1
2.788284129E1,6.554060578E-1,-1.333344221E0,-2.643999159E-1
2.790269286E1,6.996152401E-1,-1.465989351E0,-2.257932425E-1
2.792254598E1,7.556577325E-1,-1.613679051E0,-1.759640872E-1
2.794239754E1,6.340082884E-1,-1.048838139E0,-2.344151735E-1
2.796225067E1,5.038067698E-1,-4.694935679E-1,-3.281393647E-1
2.798210379E1,4.516039491E-1,-2.074498385E-1,-3.958057761E-1
2.800195536E1,5.238082409E-1,-3.848625422E-1,-4.251098335E-1
2.802180848E1,6.466444731E-1,-7.064568996E-1,-6.044773459E-1
2.804166161E1,7.097904682E-1,-8.580387831E-1,-7.346090674E-1
2.806151942E1,7.076437473E-1,-7.904247046E-1,-7.861486673E-1
2.808136629E1,6.919532418E-1,-6.880785823E-1,-7.874227166E-1
2.810121942E1,6.155252457E-1,-3.830997646E-1,-8.868890405E-1
2.812107098E1,5.190783739E-1,-2.028072625E-2,-1.070689678E0
2.814092411E1,5.152386427E-1,4.387757555E-2,-1.129646897E0
2.816077723E1,5.043478012E-1,9.623745829E-2,-1.121374011E0
2.818063036E1,4.435405135E-1,2.645744681E-1,-1.137954712E0
2.820048192E1,2.701071501E-1,6.967529058E-1,-1.259883404E0
2.822033504E1,7.845254987E-2,1.132456899E0,-1.412372828E0
2.824018817E1,-1.518436475E-3,1.309555411E0,-1.515888214E0
2.826004598E1,-1.014734432E-1,1.527599454E0,-1.638951421E0
2.827989286E1,-1.904677749E-1,1.684975743E0,-1.704593301E0
2.829974598E1,-2.415186614E-1,1.711801529E0,-1.676877379E0
2.831959911E1,-2.580294609E-1,1.692759871E0,-1.647521019E0
2.833945067E1,-1.970476657E-1,1.617867827E0,-1.657469392E0
2.835930379E1,2.750638872E-2,1.361339331E0,-1.604882598E0
2.837915692E1,2.908940315E-1,1.050042391E0,-1.451101661E0
2.839900848E1,6.087708473E-1,7.194595933E-1,-1.249306679E0
2.841886161E1,9.741206169E-1,3.924547434E-1,-1.037755370E0
2.843871473E1,1.243878722E0,2.227214724E-1,-9.053546190E-1
2.845856629E1,1.313744187E0,2.986607552E-1,-9.518676400E-1
2.847841942E1,1.421186686E0,3.275284767E-1,-9.205564857E-1
2.849827254E1,1.649859786E0,2.426880300E-1,-7.313976884E-1
2.851812411E1,1.858077526E0,1.919687688E-1,-5.597969294E-1
2.853797723E1,1.991979122E0,2.070658654E-1,-4.651477039E-1
2.855783504E1,2.240287066E0,1.497318000E-1,-2.482381761E-1
2.857768348E1,2.566977978E0,6.454227865E-2,6.848672032E-2
2.859753504E1,2.769593239E0,7.869689912E-2,2.727077007E-1
2.861738817E1,2.990848541E0,9.974556416E-2,5.342452526E-1
2.863724129E1,2.835706234E0,3.459067941E-1,4.685859978E-1
2.865709442E1,2.939780235E0,5.143834352E-1,7.724478245E-1
2.867694598E1,3.387108088E0,5.889264345E-1,1.497370362E0
2.869679911E1,5.128283501E0,3.431317210E-1,4.084157467E0
2.871665223E1,6.800867558E0,2.640683204E-2,7.194683552E0
2.873650379E1,6.828618050E0,7.766715437E-2,7.957200527E0
2.875635692E1,6.536066055E0,2.672099173E-1,8.200010300E0
2.877621004E1,6.101496696E0,5.074719191E-1,8.121627808E0
2.879606161E1,5.324807644E0,7.051653862E-1,6.858079433E0
2.881591473E1,4.452928543E0,7.559195757E-1,5.257699490E0
2.883576786E1,3.835256338E0,8.099026084E-1,4.231009483E0
2.885561942E1,3.455804348E0,9.540842175E-1,3.711809158E0
2.887547254E1,3.043121099E0,1.009829998E0,2.931629419E0
2.889532567E1,2.625079870E0,9.686577320E-1,1.935447931E0
2.891517723E1,2.208173037E0,8.229750991E-1,6.158917546E-1
2.893503036E1,1.770601630E0,5.213298202E-1,-1.159212828E0
2.895488817E1,1.410522699E0,2.119527906E-1,-2.384643316E0
2.897473504E1,1.259324908E0,1.466600150E-1,-2.411119938E0
2.899458817E1,1.134254575E0,8.169886470E-2,-2.521075726E0
2.901444129E1,1.025764942E0,4.834562074E-3,-2.656722784E0
2.903429286E1,9.340304136E-1,-6.707300246E-2,-2.677509546E0
2.905414598E1,8.572533727E-1,-1.213527396E-1,-2.638117552E0
2.907399911E1,7.974932790E-1,-1.499412358E-1,-2.570747852E0
2.909385692E1,7.457268238E-1,-1.363974810E-1,-2.438504219E0
2.911370379E1,6.995454431E-1,-1.174955666E-1,-2.290081501E0
2.913355692E1,6.570292115E-1,-8.909905702E-2,-2.107572317E0
2.915341004E1,6.187890172E-1,-4.972442985E-2,-1.892460465E0
2.917326161E1,5.845456719E-1,-3.909537569E-3,-1.680752039E0
2.919311473E1,5.501626730E-1,5.040510744E-2,-1.488312006E0
2.921296629E1,5.176646709E-1,1.017701477E-1,-1.323884606E0
2.923281942E1,4.904549718E-1,1.450543106E-1,-1.179214239E0
2.925267254E1,4.672595561E-1,1.782853752E-1,-1.055452943E0
2.927252567E1,4.509407282E-1,1.931206882E-1,-9.680817723E-1
2.929237723E1,4.425456822E-1,1.957735866E-1,-9.201375842E-1
2.931223036E1,4.358610809E-1,2.064026296E-1,-8.844630718E-1
2.933208348E1,4.287226796E-1,2.367190123E-1,-8.276351094E-1
2.935193504E1,4.229107201E-1,2.460565120E-1,-7.875623703E-1
2.937178817E1,4.202403724E-1,2.347293347E-1,-7.499155998E-1
2.939164129E1,4.179539979E-1,2.321811467E-1,-6.957929730E-1
2.941149286E1,4.187044799E-1,2.295980603E-1,-6.567499638E-1
2.943134598E1,4.187917411E-1,2.452711165E-1,-6.488785148E-1
2.945119911E1,4.591437578E-1,2.010619342E-1,-7.572983503E-1
2.947105223E1,7.566875219E-1,-3.199014068E-1,-1.599733829E0
2.949090379E1,8.466417789E-1,-4.567177594E-1,-1.724943757E0
2.951075692E1,7.751879692E-1,-3.103020787E-1,-1.439285755E0
