"Time (s)","Gyroscope x (rad/s)","Gyroscope y (rad/s)","Gyroscope z (rad/s)"
2.080166800E-2,3.788237274E-1,-5.828177929E-1,-8.150513172E-1
4.065479300E-2,3.788237274E-1,-5.828177929E-1,-8.150513172E-1
6.050635600E-2,0.000000000E0,0.000000000E0,0.000000000E0
8.035948100E-2,-9.627236426E-2,-3.989648223E-1,-2.701071501E-1
1.002188560E-1,-3.433062732E-1,-4.180063680E-2,-3.180862665E-1
1.200657310E-1,-6.281614304E-1,6.898937225E-1,-1.577254087E-1
1.399172930E-1,-7.816107869E-1,1.236303926E0,5.253440887E-2
1.597704180E-1,-7.950323820E-1,1.450228930E0,2.170840502E-1
1.796235430E-1,-7.081149817E-1,1.307234168E0,2.106263340E-1
1.994751060E-1,-6.219829917E-1,1.139804721E0,2.067342550E-1
2.193282310E-1,-4.809778333E-1,8.571486473E-1,1.849350929E-1
2.391813560E-1,-4.125085771E-1,7.499505281E-1,1.811302751E-1
2.590329180E-1,-3.677583337E-1,6.953042746E-1,1.915847957E-1
2.788860430E-1,-3.274586797E-1,6.451260448E-1,2.064026296E-1
2.987391680E-1,-2.995683253E-1,6.103242040E-1,2.040464431E-1
3.185922930E-1,-2.850122750E-1,6.004281640E-1,1.923352778E-1
3.384438560E-1,-3.586651683E-1,8.105134368E-1,2.940530777E-1
3.582969810E-1,-3.849149048E-1,8.945685029E-1,3.670601845E-1
3.781501060E-1,-3.773576319E-1,8.814610839E-1,3.988600969E-1
3.980016680E-1,-3.728197813E-1,8.722981215E-1,4.771381021E-1
4.178610430E-1,-4.071853161E-1,9.190379977E-1,7.874227166E-1
4.377079180E-1,-4.168020785E-1,8.549844623E-1,9.479406476E-1
4.575594810E-1,-3.885801136E-1,7.172430754E-1,8.690866828E-1
4.774126060E-1,-3.734132051E-1,6.227160096E-1,8.096058965E-1
4.972657310E-1,-3.305130005E-1,4.573809803E-1,7.768635154E-1
5.171172930E-1,-3.007027805E-1,3.051359057E-1,8.336041570E-1
5.369704180E-1,-2.981371284E-1,2.386039644E-1,8.648106456E-1
5.568235430E-1,-3.043505251E-1,2.209412307E-1,8.424530029E-1
5.766766680E-1,-3.358362615E-1,2.550973296E-1,8.680918813E-1
5.965344810E-1,-3.806737661E-1,3.228684664E-1,9.065240026E-1
6.163813560E-1,-4.347615242E-1,4.245862365E-1,9.632995725E-1
6.362344810E-1,-4.777664244E-1,5.049062967E-1,1.021192193E0
6.560860430E-1,-4.964589179E-1,5.212949514E-1,1.046255112E0
6.759391680E-1,-4.927762449E-1,4.963367283E-1,1.014210820E0
6.957969810E-1,-5.220628977E-1,4.085641205E-1,1.160469413E0
7.156438560E-1,-6.011263132E-1,2.865481675E-1,1.475571156E0
7.354969810E-1,-6.608340144E-1,2.215520889E-1,1.654607058E0
7.553501060E-1,-7.123386860E-1,6.037093699E-2,1.773952603E0
7.752032310E-1,-7.294254303E-1,-1.909215599E-1,1.793168664E0
7.950547930E-1,-7.115009427E-1,-4.494746327E-1,1.744718432E0
8.149079180E-1,-6.892828941E-1,-6.277600527E-1,1.706513166E0
8.347657310E-1,-6.841515899E-1,-6.766292453E-1,1.713058114E0
8.546126060E-1,-7.227582932E-1,-7.128971815E-1,1.786763310E0
8.744657310E-1,-7.609460950E-1,-8.174424171E-1,1.750216126E0
8.943188560E-1,-8.027293086E-1,-9.210625887E-1,1.620049477E0
9.141704180E-1,-8.618261218E-1,-1.012500405E0,1.511908889E0
9.340235430E-1,-9.451132417E-1,-1.141776919E0,1.427539706E0
9.538751060E-1,-1.069398165E0,-1.325368166E0,1.310061574E0
9.737282310E-1,-1.204085231E0,-1.474436641E0,1.219601154E0
9.935813560E-1,-1.266288757E0,-1.485187888E0,1.194416046E0
1.013432918E0,-1.331948042E0,-1.453091264E0,1.127639771E0
1.033286043E0,-1.357743979E0,-1.375267029E0,1.100639582E0
1.053139168E0,-1.397554994E0,-1.316711307E0,1.024019599E0
1.072990731E0,-1.467211008E0,-1.219688416E0,8.607963920E-1
1.092843856E0,-1.520722866E0,-1.140851855E0,7.589040399E-1
1.112696981E0,-1.628025651E0,-1.057878971E0,6.080378294E-1
1.132550106E0,-1.979849100E0,-9.166643620E-1,2.042558789E-1
1.152401668E0,-3.272195578E0,-7.034375072E-1,-9.730734229E-1
1.172254793E0,-4.925895214E0,-6.605722308E-1,-2.336123228E0
1.192107918E0,-5.070443153E0,-8.357334733E-1,-2.417822123E0
1.211959481E0,-5.405494213E0,-7.815759182E-1,-2.673704863E0
1.231812606E0,-5.621111870E0,-6.491577625E-1,-2.812406063E0
1.251665731E0,-5.665356159E0,-5.580166578E-1,-2.848220348E0
1.271518856E0,-5.529202938E0,-5.260946155E-1,-2.747113228E0
1.291370418E0,-5.230472565E0,-5.424134135E-1,-2.492574453E0
1.311223543E0,-4.821157932E0,-5.591162443E-1,-2.095791340E0
1.331076668E0,-4.543388844E0,-5.159716606E-1,-1.775924921E0
1.350928231E0,-4.283439159E0,-4.861265421E-1,-1.514299989E0
1.370781356E0,-3.754988670E0,-5.789082646E-1,-1.119698524E0
1.390634481E0,-2.967583418E0,-7.856075764E-1,-6.369055510E-1
1.410486043E0,-2.378778934E0,-9.197361469E-1,-3.177371919E-1
1.430339168E0,-2.302403450E0,-8.326616883E-1,-2.431941777E-1
1.450192293E0,-2.420230627E0,-6.684262156E-1,-2.622531652E-1
1.470045418E0,-2.095180511E0,-6.618462801E-1,-5.515240505E-2
1.489896981E0,-1.207924962E0,-9.136275053E-1,2.760587335E-1
1.509750106E0,-3.615449667E-1,-1.147868156E0,5.708972216E-1
1.529603231E0,6.120694876E-1,-1.426248193E0,8.685456514E-1
1.549454793E0,1.844830513E0,-1.831356525E0,1.142178416E0
1.569307918E0,2.512069941E0,-2.015506268E0,1.263478756E0
1.589167293E0,2.725698233E0,-1.953826308E0,1.343868613E0
1.609014168E0,2.366736174E0,-1.773306847E0,1.276760697E0
1.628865731E0,1.535383582E0,-1.423281074E0,1.157607079E0
1.648718856E0,2.774637222E0,-2.602146387E0,9.841562510E-1
1.668570418E0,2.308913469E0,-2.602460384E0,8.464148641E-1
1.688423543E0,1.655915976E0,-2.110958338E0,8.638332486E-1
1.708276668E0,-3.784571886E-1,-5.662371516E-1,1.023618102E0
1.728129793E0,-4.882977486E0,1.988732815E0,8.621926308E-1
1.747981356E0,-5.946807861E0,2.741859913E0,7.524638176E-1
1.767834481E0,-8.935946465E0,5.014330864E0,8.209854364E-1
1.787687606E0,-1.245229626E1,8.717273712E0,2.556907386E-2
1.807540731E0,-1.068045521E1,8.741359711E0,-1.636769772E-1
1.827392293E0,-8.218999863E0,7.378414154E0,-1.259953231E-1
1.847245418E0,-6.978314877E0,6.566452026E0,2.127556317E-2
1.867098543E0,-6.201434135E0,5.686684132E0,2.300343961E-1
1.886950106E0,-5.984803677E0,5.125054836E0,4.130496085E-1
1.906803231E0,-5.472723961E0,4.640394211E0,5.389227867E-1
1.926656356E0,-4.397025585E0,3.460970402E0,7.110645771E-1
1.946507918E0,-3.849760056E0,3.270432949E0,8.200080395E-1
1.966361043E0,-3.525949001E0,3.516506910E0,9.159836769E-1
1.986214168E0,-3.094014883E0,3.385135889E0,1.005711079E0
2.006065731E0,-2.663983345E0,3.155956745E0,1.084791899E0
2.025918856E0,-2.223601818E0,2.835898161E0,1.143731713E0
2.045771981E0,-1.805595517E0,2.417193651E0,1.167363524E0
2.065625106E0,-1.490354061E0,2.112214804E0,1.173733950E0
2.085482918E0,-1.217768550E0,1.783202887E0,1.165094495E0
2.105329793E0,-1.078892708E0,1.571023226E0,1.132736087E0
2.125182918E0,-1.543604136E0,2.549541950E0,9.703856111E-1
2.145040731E0,-1.700282335E0,3.185784340E0,8.137074113E-1
2.164887606E0,-1.595422864E0,3.142936468E0,7.090923786E-1
2.184740731E0,-1.450316191E0,2.999994040E0,6.313903332E-1
2.204593856E0,-1.331337094E0,2.907840729E0,5.509480834E-1
2.224445418E0,-1.648725271E0,5.077616692E0,1.342681795E-1
2.244298543E0,-2.608952999E0,1.268067265E1,-1.305628419E0
2.264151668E0,2.543695211E0,-1.533557987E1,2.256536245E0
2.284003231E0,3.292389214E-1,-1.763096690E0,1.290670991E0
2.303856356E0,3.520678282E-1,-8.705527782E-1,1.197993994E0
2.323709481E0,1.305331737E-1,1.496096253E-1,9.372069240E-1
2.343561043E0,-6.705904007E-1,5.786464691E0,-7.464773208E-2
2.363414168E0,-8.010886908E-1,7.233202934E0,-3.704635799E-1
2.383267293E0,-7.356911898E-1,6.892654419E0,-4.084768593E-1
2.403120418E0,-6.876597404E-1,6.502695560E0,-4.246909618E-1
2.422971981E0,-7.424805164E-1,6.782873154E0,-5.494645238E-1
2.442825106E0,-8.021358848E-1,6.931575298E0,-5.889788270E-1
2.462676668E0,-8.595920801E-1,6.841254234E0,-5.471607447E-1
2.482529793E0,-8.147196770E-1,6.260007381E0,-4.786914587E-1
2.502381356E0,-6.982364058E-1,5.380343914E0,-4.169591665E-1
2.522234481E0,-3.210533261E-1,1.598494649E0,1.433089823E-1
2.542087606E0,-2.442064732E-1,-1.790009737E-1,4.839274287E-1
2.561939168E0,-2.383247018E-1,-8.953887820E-1,5.559746027E-1
2.581793856E0,-2.509957850E-1,-1.254629970E0,5.861862898E-1
2.601645418E0,-4.360181391E-1,1.290147305E-1,4.126132727E-1
2.621498543E0,-5.663070083E-1,1.101477265E0,2.526538670E-1
2.641351668E0,-6.017371416E-1,1.176753283E0,1.967684180E-1
2.661203231E0,-6.150365472E-1,1.031367421E0,1.626472324E-1
2.681056356E0,-6.719168425E-1,1.377501130E0,1.182984188E-1
2.700907918E0,-6.756867766E-1,1.107708097E0,1.190489084E-1
2.720761043E0,-6.093468070E-1,-1.260127686E-2,1.452462971E-1
2.740614168E0,-5.413312912E-1,-1.245885849E0,1.766098738E-1
2.760465731E0,-2.962172925E-1,-3.915506601E0,4.231725335E-1
2.780325106E0,-2.104692608E-1,-4.227274895E0,5.221326947E-1
2.800171981E0,-2.029119730E-1,-3.962037086E0,5.084842443E-1
2.820025106E0,-1.980425119E-1,-3.603249788E0,5.105611682E-1
2.839882918E0,-1.806415766E-1,-3.170233488E0,5.489409566E-1
2.859729793E0,-1.586155146E-1,-2.806611538E0,5.581388474E-1
2.879582918E0,-1.517912894E-1,-2.459151506E0,5.407902598E-1
2.899434481E0,-1.667138487E-1,-2.064392805E0,4.855331481E-1
2.919293856E0,-2.206968814E-1,-1.608635068E0,3.752807081E-1
2.939140731E0,-2.859547436E-1,-1.217436910E0,2.199114859E-1
2.958993856E0,-2.978404462E-1,-1.069293380E0,9.208357334E-2
2.978845418E0,-2.757620215E-1,-1.010667801E0,3.164282069E-2
2.998698543E0,-2.524618804E-1,-1.005955458E0,-2.492330223E-2
3.018551668E0,-2.362303138E-1,-1.062957883E0,-1.045277715E-1
3.038403231E0,-2.136632055E-1,-1.016933560E0,-1.724036187E-1
3.058256356E0,-1.834340990E-1,-7.931823134E-1,-2.115513533E-1
3.078109481E0,-1.444783509E-1,-3.987553716E-1,-2.224073112E-1
3.097961043E0,-1.022239327E-1,9.925687313E-2,-2.190039158E-1
3.117814168E0,-6.180210784E-2,6.199060678E-1,-2.090206295E-1
3.137667293E0,-2.782054804E-2,1.194625497E0,-1.962273717E-1
3.157518856E0,-3.019419685E-2,2.245296240E0,-1.876403540E-1
3.177371981E0,-3.361504152E-2,3.279944897E0,-1.726828814E-1
3.197225106E0,-2.799508162E-2,4.076373577E0,-1.586504281E-1
3.217078231E0,-5.092870817E-2,4.913573265E0,-1.188743785E-1
3.236929793E0,-2.988003753E-2,5.095279217E0,-7.655014098E-2
3.256782918E0,3.279473633E-2,4.866414070E0,-6.963863969E-2
3.276634481E0,2.437177747E-1,3.588903189E0,-7.927285135E-2
3.296487606E0,3.791204095E-1,2.718786716E0,-6.935938448E-2
3.316340731E0,3.764325976E-1,2.901697159E0,-6.834709644E-2
3.336200106E0,3.600439727E-1,3.046297550E0,-6.984807551E-2
3.356045418E0,3.384367824E-1,3.079179764E0,-7.485716790E-2
3.375898543E0,3.165852726E-1,3.201125860E0,-1.002517119E-1
3.395751668E0,1.679181308E-1,4.772341251E0,-3.182084262E-1
3.415604793E0,6.579891313E-3,5.431604385E0,-3.822794557E-1
3.435456356E0,-4.455825686E-2,5.408094883E0,-3.923500180E-1
3.455309481E0,-1.006531343E-1,5.512884140E0,-4.339586496E-1
3.475161043E0,-1.363276690E-1,5.386714458E0,-4.518657327E-1
3.495015731E0,-1.282991469E-1,4.956071854E0,-4.246211648E-1
3.514867293E0,-8.976228535E-2,4.407183170E0,-3.796614707E-1
3.534726668E0,-2.528982051E-2,3.912871122E0,-3.289945722E-1
3.554573543E0,9.419541806E-2,3.124121904E0,-2.184279561E-1
3.574425106E0,2.160019428E-1,1.597709298E0,-1.446877979E-2
3.594278231E0,2.412219495E-1,3.042632341E-1,1.258207858E-1
3.614131356E0,2.147976756E-1,-4.225442111E-1,1.761909872E-1
3.633982918E0,1.590518504E-1,-1.260494232E0,2.343628109E-1
3.653836043E0,-6.771877408E-3,-1.471033335E0,2.757620215E-1
3.673689168E0,-2.305230796E-1,-8.675333261E-1,2.719397545E-1
3.693540731E0,-2.933723927E-1,-3.093770742E-1,2.198242247E-1
3.713392293E0,-3.007027805E-1,6.913249195E-2,1.798736304E-1
3.733246981E0,-3.230080903E-1,7.045719624E-1,1.305506229E-1
3.753100106E0,-4.299094975E-1,1.622370839E0,7.843509316E-2
3.772951668E0,-2.359685153E-1,1.012325883E0,8.059930801E-2
3.792803231E0,-1.384918690E-1,9.182177484E-2,7.347836345E-2
3.812656356E0,-1.077740788E-1,-6.779906154E-1,4.574507847E-2
3.832509481E0,-8.731882274E-2,-3.654318094E0,-3.682644665E-2
3.852362606E0,-1.799085438E-1,-1.079917240E1,-5.667084083E-2
3.872215731E0,-1.461364180E-1,-1.116391087E1,1.408655196E-1
3.892073543E0,-1.269552559E-1,-1.025501347E1,1.652477682E-1
3.911918856E0,-1.050164625E-1,-9.246283531E0,1.646892726E-1
3.931771981E0,-9.700539708E-2,-8.139814377E0,1.271646917E-1
3.951626668E0,-9.503317624E-2,-7.028388500E0,7.707373798E-2
3.971478231E0,-1.330115348E-1,-5.829870701E0,-2.537708730E-2
3.991329793E0,-1.468171030E-1,-4.546286106E0,-6.990043819E-2
4.011182918E0,-1.195725054E-1,-3.688421726E0,-6.803293526E-2
4.031042293E0,-1.041263416E-1,-2.927161455E0,-5.260422453E-2
4.050887606E0,-7.253587991E-2,-2.037933588E0,-6.806784077E-4
4.070742293E0,-3.101450019E-2,-1.021715760E0,6.113888323E-2
4.090593856E0,1.617920212E-2,9.918706119E-2,1.341634542E-1
4.110446981E0,6.482152641E-2,1.029325366E0,1.868200451E-1
4.130298543E0,1.091354340E-1,1.717787981E0,2.012713701E-1
4.150153231E0,1.396088898E-1,2.312910318E0,1.839227974E-1
4.170003231E0,1.497841626E-1,2.918382406E0,1.597848982E-1
4.189857918E0,1.527686715E-1,3.470150948E0,1.374097764E-1
4.209709481E0,1.561371535E-1,3.899414539E0,9.737192094E-2
4.229568856E0,1.458746195E-1,4.425928116E0,1.429424621E-2
4.249414168E0,1.399405003E-1,5.023581028E0,-1.167625263E-1
4.269267293E0,1.444783509E-1,5.121040344E0,-1.828406900E-1
4.289120418E0,1.635897160E-1,4.872138977E0,-2.084446698E-1
4.308973543E0,2.164033800E-1,4.603864193E0,-2.673320770E-1
4.328825106E0,2.925520837E-1,4.284085274E0,-3.314031065E-1
4.348678231E0,2.958856523E-1,3.808133841E0,-3.070732355E-1
4.368531356E0,3.163932860E-1,3.280520916E0,-2.772979140E-1
4.388382918E0,4.807334840E-1,1.981734037E0,-1.656492054E-1
4.408236043E0,3.869220316E-1,1.963530302E0,-1.586329788E-1
4.428089168E0,3.678106964E-1,1.731034994E0,-1.483704448E-1
4.447942293E0,3.505842984E-1,1.497387767E0,-1.345125288E-1
4.467793856E0,2.975437343E-1,1.219601154E0,-7.579965144E-2
4.487646981E0,2.074847370E-1,1.095595479E0,-2.679080330E-2
4.507498543E0,1.776047051E-1,9.772971272E-1,-2.146754973E-2
4.527351668E0,1.451415867E-1,8.797332048E-1,-1.811651699E-2
4.547204793E0,9.616763890E-2,8.274257183E-1,-1.438151300E-2
4.567056356E0,5.164429173E-2,7.677004933E-1,-1.054178830E-2
4.586909481E0,4.548327997E-2,6.476742029E-1,-6.318091881E-3
4.606762606E0,5.890486389E-2,4.778886139E-1,-2.042035107E-3
4.626614168E0,6.335545331E-2,2.745228410E-1,2.862340072E-3
4.646467293E0,5.572836101E-2,7.382742595E-3,1.143190637E-2
4.666320418E0,4.283038154E-2,-3.335673213E-1,2.439970337E-2
4.686173543E0,2.963569015E-2,-7.106806040E-1,4.331907257E-2
4.706026668E0,1.315978263E-2,-1.140520334E0,7.527604699E-2
4.725878231E0,-1.350884791E-2,-1.634919763E0,1.199215725E-1
4.745731356E0,-4.897394031E-2,-2.027845621E0,1.529432088E-1
4.765582918E0,-9.719738364E-2,-2.279801369E0,1.707106531E-1
4.785436043E0,-1.519658118E-1,-2.320327997E0,1.551597714E-1
4.805289168E0,-1.872040182E-1,-2.335651875E0,1.217716187E-1
4.825140731E0,-2.874731719E-1,-1.555524707E0,-1.122246683E-2
4.844993856E0,-5.069832206E-1,2.546784580E-1,-1.747947186E-1
4.864846981E0,-5.157622695E-1,4.496142566E-1,-2.355147302E-1
4.884700106E0,-5.245063305E-1,7.759733498E-2,-2.016378939E-1
4.904553231E0,-4.846779406E-1,-1.357848644E0,-2.703515068E-2
4.924411043E0,-4.407654405E-1,-2.179008722E0,7.953465730E-2
4.944256356E0,-3.990869820E-1,-2.573191166E0,1.018050537E-1
4.964111043E0,-3.517711163E-1,-3.196500778E0,2.670702934E-1
4.983962606E0,-3.209137022E-1,-3.333474159E0,3.444930911E-1
5.003814168E0,-2.956587672E-1,-3.243275642E0,3.235316873E-1
5.023668856E0,-2.744704783E-1,-3.051743031E0,2.997253835E-1
5.043520418E0,-2.512924969E-1,-2.807501793E0,2.686236203E-1
5.063371981E0,-2.336995900E-1,-2.515071869E0,2.378883809E-1
5.083226668E0,-2.165080905E-1,-2.205013990E0,2.145184129E-1
5.103079793E0,-1.963669956E-1,-1.950387955E0,1.997180283E-1
5.122931356E0,-1.710946262E-1,-1.767686963E0,1.551248580E-1
5.142784481E0,-1.557706296E-1,-1.565508008E0,6.510078162E-2
5.162637606E0,-1.683893651E-1,-1.150224328E0,-6.558947265E-2
5.182489168E0,-1.548979729E-1,-7.529699206E-1,-1.387885809E-1
5.202340731E0,-1.204626262E-1,-3.847403824E-1,-1.729097664E-1
5.222193856E0,-8.225736767E-2,2.809980186E-3,-1.745678335E-1
5.242048543E0,-5.386086181E-2,2.774200737E-1,-1.590344012E-1
5.261900106E0,-2.837905288E-2,5.317320228E-1,-1.255415380E-1
5.281753231E0,2.967059845E-4,7.764446139E-1,-8.641125262E-2
5.301606356E0,3.790855035E-2,9.676105380E-1,-5.506513640E-2
5.321457918E0,9.014625847E-2,1.132160187E0,-3.668681905E-2
5.341309481E0,8.232717961E-2,1.646404028E0,2.617993858E-3
5.361162606E0,-5.152212083E-2,2.755560637E0,8.482300490E-2
5.381015731E0,-8.848818950E-3,2.884226322E0,8.834856749E-2
5.400868856E0,3.307398781E-2,2.932100773E0,9.834930301E-2
5.420720418E0,7.173303515E-2,2.957809448E0,9.920451790E-2
5.440573543E0,1.856681257E-1,2.865830660E0,1.609193534E-2
5.460426668E0,3.533070087E-1,2.654000044E0,-1.015432552E-1
5.480278231E0,5.249601603E-1,1.926756263E0,-1.060985625E-1
5.500131356E0,5.458342433E-1,1.388077855E0,3.420845373E-3
5.519984481E0,5.827305317E-1,1.007107377E0,4.183554277E-2
5.539836043E0,6.409372687E-1,8.442855477E-1,-6.597344764E-3
5.559695418E0,6.082472205E-1,1.086659431E0,-4.504694790E-2
5.579542293E0,5.346641541E-1,1.400818706E0,-5.155702680E-2
5.599395418E0,4.417602718E-1,1.718276620E0,-4.593706504E-2
5.619253231E0,3.624525368E-1,2.027357101E0,-6.347762793E-2
5.639100106E0,3.056071401E-1,2.288964510E0,-1.049640998E-1
5.658953231E0,2.711369097E-1,2.385463715E0,-1.297652274E-1
5.678804793E0,2.345897108E-1,2.572562933E0,-1.784599125E-1
5.698657918E0,1.988628209E-1,2.691768885E0,-2.191784531E-1
5.718511043E0,1.643227488E-1,2.655117035E0,-2.372076958E-1
5.738362606E0,1.361182332E-1,2.504146099E0,-2.320938855E-1
5.758215731E0,1.166403517E-1,2.180195570E0,-1.904328763E-1
5.778068856E0,1.576904953E-1,1.175252318E0,-6.447245926E-2
5.797921981E0,1.740791351E-1,-1.453283310E0,2.425833046E-1
5.817773543E0,6.290166825E-2,-2.937895298E0,4.084768593E-1
5.837626668E0,-1.787217148E-2,-3.574800730E0,4.245862365E-1
5.857479793E0,-1.209338605E-1,-3.185592413E0,3.658733666E-1
5.877331356E0,-2.400874943E-1,-1.398357749E0,2.287952155E-1
5.897184481E0,-3.949680030E-1,3.580892086E-1,1.594881862E-1
5.917037606E0,-5.290092826E-1,1.400853634E0,1.484751552E-1
5.936889168E0,-5.981417894E-1,2.082544327E0,1.380031854E-1
5.956742293E0,-5.423086882E-1,2.060029507E0,1.159422249E-1
5.976595418E0,-3.318045437E-1,9.232966304E-1,2.698278986E-2
5.996446981E0,-4.804542363E-1,-8.233084679E0,-2.198242247E-1
6.016300106E0,-5.184500813E-1,-9.621721268E0,-2.177123725E-1
6.036151668E0,-5.016599894E-1,-9.135455132E0,-1.899616420E-1
6.056004793E0,-4.624947906E-1,-8.062479019E0,-6.918485463E-2
6.075857918E0,-4.089131951E-1,-6.350799561E0,2.421993464E-1
6.095711043E0,-3.862937093E-1,-5.303532124E0,3.931528628E-1
6.115564168E0,-3.708999157E-1,-4.935163021E0,3.593807518E-1
6.135417293E0,-3.518758416E-1,-4.630061626E0,3.111747503E-1
6.155268856E0,-3.387858570E-1,-4.380270481E0,2.631433010E-1
6.175121981E0,-4.311312437E-1,-4.450642109E0,3.677408770E-2
6.194975106E0,-5.394987464E-1,-4.588418007E0,-1.632930040E-1
6.214826668E0,-5.072973967E-1,-4.744782448E0,-2.028421611E-1
6.234678231E0,-4.816061556E-1,-4.781678677E0,-2.339264750E-1
6.254532918E0,-4.498586059E-1,-4.682945251E0,-2.508561611E-1
6.274384481E0,-4.101000130E-1,-4.179260731E0,-2.051983625E-1
6.294237606E0,-3.657162786E-1,-3.609637499E0,-1.504997462E-1
6.314095418E0,-3.318394423E-1,-3.255213499E0,-1.194328815E-1
6.333942293E0,-2.960078418E-1,-2.740358829E0,-7.253587991E-2
6.353793856E0,-2.398955077E-1,-1.324408174E0,3.045599535E-2
6.373646981E0,-1.191536263E-1,6.425080299E-1,1.070061326E-1
6.393500106E0,4.537681639E-1,6.307742119E0,3.549825251E-1
6.413351668E0,1.138303757E0,1.287515450E1,6.698573828E-1
6.433204793E0,1.098492742E0,1.461680126E1,7.877892852E-1
6.453057918E0,8.292931914E-1,1.456018257E1,7.105060816E-1
6.472911043E0,6.609387398E-1,1.399497509E1,5.084318519E-1
6.492762606E0,6.084915996E-1,1.272673130E1,3.367961943E-1
6.512615731E0,5.695707202E-1,1.104023743E1,2.526189685E-1
6.532468856E0,6.192427874E-1,9.706596375E0,1.820552945E-1
6.552320418E0,9.177639484E-1,9.652700424E0,1.008974835E-1
6.572173543E0,1.027230978E0,1.012842464E1,-2.565634064E-2
6.592026668E0,1.006444097E0,9.110304832E0,-3.796090931E-2
6.611879793E0,9.062447548E-1,7.318235397E0,2.008873969E-2
6.631731356E0,8.136376143E-1,5.901464462E0,7.023204863E-2
6.651584481E0,6.834883690E-1,4.365714073E0,1.454382837E-1
6.671437606E0,5.298296213E-1,3.206920385E0,1.723861694E-1
6.691289168E0,4.529129267E-1,2.799700022E0,1.476548612E-1
6.711142293E0,4.020540416E-1,2.515490770E0,1.251052022E-1
6.730995418E0,3.465002179E-1,2.237267733E0,1.077391729E-1
6.750848543E0,2.465801090E-1,1.669599414E0,1.200262904E-1
6.770700106E0,1.491732895E-1,9.293529391E-1,1.749518067E-1
6.790553231E0,9.538224339E-2,5.436700583E-1,1.860520989E-1
6.810406356E0,1.138303727E-1,7.302457690E-1,1.590344012E-1
6.830257918E0,1.492954642E-1,1.057652116E0,1.491034776E-1
6.850111043E0,2.082003206E-1,1.592665315E0,1.641831249E-1
6.869964168E0,3.802025318E-1,3.769457340E0,7.812093943E-2
6.889815731E0,9.563182592E-1,1.066666698E1,-3.714409769E-1
6.909668856E0,1.042904019E0,1.157826996E1,-4.449193180E-1
6.929521981E0,7.709293962E-1,9.966196060E0,-2.253220081E-1
6.949373543E0,-8.194146156E-1,-4.135068893E0,2.455852777E-1
6.969226668E0,-8.721933961E-1,-4.140252590E0,1.618443877E-1
6.989079793E0,-7.534237504E-1,-2.801672220E0,1.413367689E-1
7.008937606E0,-7.392865419E-1,-2.252661467E0,1.006182283E-1
7.028784481E0,-2.656041980E-1,3.120788336E0,2.279399931E-1
7.048637606E0,2.948733866E-1,7.910129070E0,3.659780920E-1
7.068490731E0,4.310788810E-1,8.803719521E0,4.585503638E-1
7.088342293E0,7.143807411E-1,1.022846699E1,6.204645634E-1
7.108195418E0,1.100115895E0,1.110591412E1,7.630230188E-1
7.128048543E0,1.382545114E0,1.062282467E1,8.008792400E-1
7.147900106E0,1.267562866E0,9.098890305E0,6.607990861E-1
7.167753231E0,1.107132196E0,7.961144924E0,5.697627068E-1
7.187606356E0,9.711535573E-1,6.951838493E0,4.783772826E-1
7.207459481E0,8.635365367E-1,6.113975525E0,4.023332894E-1
7.227311043E0,7.778583169E-1,5.467243671E0,3.559249938E-1
7.247164168E0,6.808878183E-1,4.924411774E0,3.155729771E-1
7.267015731E0,5.548750758E-1,4.351629257E0,2.430545539E-1
7.286868856E0,4.373271465E-1,3.741933584E0,1.478468478E-1
7.306720418E0,3.242123723E-1,3.142779350E0,4.845033959E-2
7.326573543E0,2.114466429E-1,2.538406849E0,-5.674065277E-2
7.346426668E0,8.672541380E-2,1.947106719E0,-1.617396623E-1
7.366279793E0,-1.434660610E-2,1.453353167E0,-2.450267673E-1
7.386132918E0,-8.189085126E-2,1.101494789E0,-3.000046313E-1
7.405986043E0,-9.887290001E-2,9.437170029E-1,-3.162536621E-1
7.425837606E0,-8.127998561E-2,9.756914377E-1,-2.966885269E-1
7.445690731E0,-3.769911081E-2,1.195271254E0,-2.488315850E-1
7.465543856E0,1.516691130E-2,1.465116620E0,-1.998402029E-1
7.485395418E0,7.339109480E-2,1.810604572E0,-1.513724029E-1
7.505246981E0,1.639213264E-1,2.580905676E0,-6.953391433E-2
7.525100106E0,3.613878787E-1,4.773894310E0,1.459269822E-1
7.544954793E0,6.625618935E-1,8.325970650E0,5.087809563E-1
7.564806356E0,7.595498562E-1,9.073530197E0,5.616294742E-1
7.584659481E0,7.597069144E-1,8.072689056E0,3.710919023E-1
7.604511043E0,7.931997776E-1,7.921455860E0,2.478193045E-1
7.624364168E0,8.776737452E-1,1.123328781E1,4.124562144E-1
7.644215731E0,8.107403517E-1,1.514910889E1,5.443682075E-1
7.664068856E0,8.019613624E-1,1.181005001E1,3.150668442E-1
7.683921981E0,7.397752404E-1,8.348730087E0,2.057743222E-1
7.703779793E0,7.363544106E-1,8.800840378E0,1.298350394E-1
7.723626668E0,6.888989210E-1,9.917204857E0,4.488986731E-2
7.743479793E0,6.468189955E-1,7.679588318E0,5.084143952E-2
7.763332918E0,5.794667602E-1,5.925776958E0,7.368779927E-2
7.783184481E0,4.941376150E-1,4.461340904E0,1.129228026E-1
7.803037606E0,4.195771515E-1,3.844872952E0,1.178097278E-1
7.822890731E0,3.732561171E-1,3.604349136E0,1.001644433E-1
7.842743856E0,3.367612660E-1,3.484165907E0,7.550293952E-2
7.862595418E0,3.009296656E-1,3.399080992E0,4.164355621E-2
7.882448543E0,2.667561173E-1,3.390755892E0,-1.221730490E-4
7.902300106E0,2.298424095E-1,3.402048111E0,-4.668755829E-2
7.922153231E0,1.921782047E-1,3.365483522E0,-8.405505866E-2
7.942006356E0,1.709026396E-1,3.287153006E0,-8.665559441E-2
7.961857918E0,1.664346009E-1,3.106424332E0,-5.218534544E-2
7.981712606E0,2.212030292E-1,4.014519215E0,-5.920156837E-2
8.001564168E0,3.551919460E-1,1.511060715E1,-7.224965096E-1
8.021417293E0,-4.352501929E-1,-1.550875092E1,8.596444726E-1
8.041268856E0,-4.539426863E-1,-1.336820984E1,7.575950623E-1
8.061121981E0,-4.647462666E-1,-1.162767982E1,6.392617226E-1
8.080975106E0,-4.632103741E-1,-1.030899620E1,5.238780379E-1
8.100828231E0,-4.545186460E-1,-9.323147774E0,4.054050744E-1
8.120679793E0,-4.527558684E-1,-8.108450890E0,2.236290425E-1
8.140532918E0,-4.734554589E-1,-5.637483120E0,-4.234168679E-2
8.160386043E0,-4.480783641E-1,-6.606612206E0,-1.635024399E-1
8.180237606E0,-4.276754856E-1,-6.824045181E0,-1.987580955E-1
8.200090731E0,-4.211479425E-1,-6.404433250E0,-2.411870509E-1
8.219943856E0,-4.167148173E-1,-5.706667900E0,-2.551496923E-1
8.239795418E0,-4.194375277E-1,-4.771765232E0,-1.987755448E-1
8.259648543E0,-3.644945621E-1,-4.603078842E0,-1.593660116E-1
8.279501668E0,-2.469815463E-1,-4.184252262E0,1.207942367E-1
8.299354793E0,-1.983741224E-1,-3.799808741E0,2.045002282E-1
8.319206356E0,-1.775697917E-1,-3.390598774E0,2.259852290E-1
8.339065731E0,-1.687384248E-1,-3.017778873E0,2.158797681E-1
8.358912606E0,-1.566433012E-1,-2.677561998E0,2.045700401E-1
8.378764168E0,-1.423665136E-1,-2.366753817E0,1.907819360E-1
8.398621981E0,-1.327846497E-1,-2.119580269E0,1.638689637E-1
8.418470418E0,-1.333431602E-1,-1.849630117E0,1.432915330E-1
8.438321981E0,-1.252273768E-1,-1.678256273E0,1.049117446E-1
8.458175106E0,-1.157153323E-1,-1.616750836E0,3.925245628E-2
8.478028231E0,-2.087937444E-1,-1.357831240E0,-9.346237779E-2
8.497879793E0,-3.119077981E-1,-8.713730574E-1,-1.778839529E-1
8.517732918E0,-3.020990491E-1,-4.880115092E-1,-1.685289890E-1
8.537586043E0,-2.635970712E-1,3.307398781E-2,-1.245641485E-1
8.557437606E0,-2.000496387E-1,6.062052250E-1,-5.930628628E-2
8.577290731E0,-1.343379915E-1,1.201624274E0,4.625122529E-3
8.597143856E0,-8.182103187E-2,1.733251572E0,5.565854907E-2
8.616995418E0,-3.064798191E-2,2.259869814E0,1.012465507E-1
8.636850106E0,2.839650773E-2,2.515752554E0,1.113345549E-1
8.656700106E0,1.022762954E-1,2.386214256E0,5.225515738E-2
8.676554793E0,1.868724078E-1,1.935308337E0,-4.214970022E-2
8.696406356E0,1.803274155E-1,4.230189323E0,1.206371561E-1
8.716259481E0,1.751612425E-1,5.412929058E0,2.294758856E-1
8.736112606E0,1.931555867E-1,5.605194569E0,2.540850341E-1
8.755964168E0,2.213252038E-1,5.468814850E0,2.437352240E-1
8.775817293E0,2.544864714E-1,5.109922409E0,2.194925994E-1
8.795670418E0,3.209311366E-1,4.382452011E0,1.900663525E-1
8.815521981E0,3.818780482E-1,3.868208170E0,1.481609941E-1
8.835375106E0,4.702266157E-1,3.652118921E0,4.948008433E-2
8.855226668E0,5.465498567E-1,3.881926298E0,-6.894050539E-2
8.875079793E0,6.230127215E-1,3.663655519E0,-1.405862719E-1
8.894934481E0,5.564982295E-1,3.744987965E0,-1.342507303E-1
8.914786043E0,4.744852185E-1,3.663882494E0,-1.176875532E-1
8.934637606E0,3.515791297E-1,2.839825153E0,1.937315450E-3
8.954490731E0,2.818532288E-1,2.267566681E0,7.726572454E-2
8.974343856E0,2.531599998E-1,2.088426113E0,7.649777830E-2
8.994195418E0,2.300518453E-1,1.933179021E0,6.646213681E-2
9.014048543E0,2.107834071E-1,1.733286500E0,5.623450875E-2
9.033906356E0,1.941329688E-1,1.533725500E0,4.352851212E-2
9.053753231E0,1.797340065E-1,1.363468647E0,3.087487444E-2
9.073606356E0,1.662600636E-1,1.247962713E0,1.715658605E-2
9.093459481E0,1.525417715E-1,1.063271999E0,8.813912980E-3
9.113312606E0,2.297202349E-1,-4.170987904E-1,7.873180509E-2
9.133164168E0,1.921607554E-1,-5.049813271E0,4.596673548E-1
9.153017293E0,8.627162129E-2,-6.073623657E0,5.826956034E-1
9.172870418E0,2.565634064E-2,-6.149981976E0,5.929232240E-1
9.192721981E0,-4.391248524E-2,-5.641829014E0,5.836904645E-1
9.212575106E0,-1.328893751E-1,-4.797805309E0,5.283635259E-1
9.232428231E0,-2.501405776E-1,-3.547626019E0,3.885801136E-1
9.252279793E0,-3.923151195E-1,-1.811843753E0,1.910786480E-1
9.272132918E0,-4.976631701E-1,-6.191206574E-1,8.733627200E-2
9.291986043E0,-5.593780279E-1,3.001966281E-3,3.515093029E-2
9.311843856E0,-5.890660882E-1,1.025031880E-1,5.305801053E-3
9.331690731E0,-5.393241644E-1,-9.933716059E-1,-4.017747939E-2
9.351543856E0,-4.225267470E-1,-2.883563280E0,-1.276184767E-1
9.371396981E0,-3.404264748E-1,-3.994168520E0,-1.116312593E-1
9.391248543E0,-2.900562584E-1,-4.245967388E0,-6.365215778E-2
9.411101668E0,-1.695063710E-1,-4.487066746E0,9.342747182E-2
9.430954793E0,-1.259778589E-1,-4.184391975E0,1.742711216E-1
9.450806356E0,-1.233249679E-1,-3.705857515E0,2.132094204E-1
9.470659481E0,-1.739046127E-1,-2.672587872E0,4.039913714E-1
9.490512606E0,-2.050238252E-1,-2.100870371E0,4.327718318E-1
9.510365731E0,-1.984788477E-1,-1.866751790E0,3.935543001E-1
9.530217293E0,-1.865407825E-1,-1.695726991E0,3.470761776E-1
9.550070418E0,-1.708677262E-1,-1.560760736E0,3.000046313E-1
9.569923543E0,-1.707106531E-1,-1.548368812E0,1.630312055E-1
9.589775106E0,-2.022313029E-1,-1.772346973E0,-9.871581942E-2
9.609628231E0,-2.392846346E-1,-1.804356337E0,-2.593733668E-1
9.629481356E0,-2.331061810E-1,-1.698414803E0,-2.772630155E-1
9.649332918E0,-2.281668931E-1,-1.433281779E0,-2.762157917E-1
9.669186043E0,-2.061582953E-1,-9.401041269E-1,-2.338217646E-1
9.689039168E0,-1.689478755E-1,-3.524692357E-1,-1.796641946E-1
9.708890731E0,-1.259080470E-1,2.274862081E-1,-1.305680871E-1
9.728743856E0,-8.457865566E-2,7.234739065E-1,-9.513789415E-2
9.748596981E0,-4.431391135E-2,1.166508198E0,-6.487388909E-2
9.768450106E0,-9.424777818E-4,1.612928510E0,-3.567453101E-2
9.788301668E0,4.174827412E-2,2.053153038E0,-2.277654596E-2
9.808154793E0,7.140141726E-2,2.905851126E0,-1.132718660E-2
9.828006356E0,6.035348400E-2,4.580075741E0,2.624975145E-2
9.847859481E0,9.939649701E-2,5.109276772E0,2.811725438E-2
9.867712606E0,1.639562249E-1,4.976492405E0,-2.984513063E-3
9.887564168E0,3.516314924E-1,3.322339058E0,-1.576904953E-1
9.907417293E0,4.552691281E-1,2.083504200E0,-1.738347858E-1
9.927270418E0,4.519006610E-1,2.663808823E0,-1.562244147E-1
9.947123543E0,4.653047621E-1,2.801218510E0,-1.546710730E-1
9.966975106E0,4.822170138E-1,2.878920555E0,-1.614604145E-1
9.986828231E0,4.332256317E-1,3.474130154E0,-1.657015532E-1
1.000667979E1,3.635171652E-1,3.967866421E0,-1.740093231E-1
1.002653292E1,2.875778973E-1,4.582152367E0,-2.349562198E-1
1.004638604E1,2.307325304E-1,4.828994274E0,-2.739119828E-1
1.006623917E1,1.947263777E-1,4.767593861E0,-2.866528630E-1
1.008609073E1,1.841322333E-1,4.289216518E0,-2.512401342E-1
1.010594542E1,1.876228899E-1,3.559267282E0,-1.840275228E-1
1.012579698E1,1.961226463E-1,2.489066362E0,-6.363470107E-2
1.014564854E1,1.944994926E-1,1.910001040E0,-1.089085452E-2
1.016550167E1,1.796641946E-1,1.723826766E0,-8.482299745E-3
1.018535479E1,1.665393114E-1,1.434049726E0,3.665191354E-3
1.020520636E1,1.499935985E-1,8.978322744E-1,4.642575979E-2
1.022505948E1,1.379333735E-1,1.504473854E-2,1.186300293E-1
1.024491261E1,1.267109066E-1,-1.022256851E0,1.844638437E-1
1.026476573E1,1.009672955E-1,-2.375218630E0,2.667910159E-1
1.028461729E1,5.318018049E-2,-3.786352158E0,3.586302400E-1
1.030447042E1,-2.775073517E-3,-4.711673260E0,4.286179543E-1
1.032432354E1,-5.658357590E-2,-5.157413006E0,4.726002514E-1
1.034417511E1,-1.032711342E-1,-5.280615807E0,4.937536418E-1
1.036402823E1,-1.482482702E-1,-5.247245312E0,4.947310388E-1
1.038388136E1,-1.926843524E-1,-4.895648479E0,4.501204193E-1
1.040373292E1,-2.640334070E-1,-3.963119030E0,3.373721540E-1
1.042358604E1,-3.810053766E-1,-1.955344677E0,1.695412844E-1
1.044343917E1,-4.233121574E-1,-1.733775139E0,9.850638360E-2
1.046329229E1,-4.344648123E-1,-2.464928389E0,8.492772281E-2
1.048314386E1,-4.391946495E-1,-3.102741718E0,6.382668763E-2
1.050299698E1,-4.481481910E-1,-3.297084093E0,4.303981736E-2
1.052285011E1,-4.670850039E-1,-2.927562952E0,8.040732145E-2
1.054270167E1,-4.567177594E-1,-2.896059752E0,1.092401594E-1
1.056255479E1,-4.287575781E-1,-3.122673273E0,9.370672703E-2
1.058240792E1,-3.930481374E-1,-3.186115980E0,1.014210805E-1
1.060225948E1,-2.774550021E-1,-3.091972828E0,2.742086649E-1
1.062211261E1,-2.570346296E-1,-2.561200857E0,3.740414977E-1
1.064196573E1,-2.576280534E-1,-2.154643774E0,4.043055177E-1
1.066181886E1,-2.534392476E-1,-1.944907665E0,3.882834017E-1
1.068167042E1,-2.428974658E-1,-1.753671885E0,3.729943037E-1
1.070152354E1,-2.330712676E-1,-1.661710501E0,3.370056152E-1
1.072137667E1,-2.361605018E-1,-1.576817751E0,2.889741659E-1
1.074122823E1,-2.396337092E-1,-1.615476727E0,2.300867587E-1
1.076108136E1,-2.794097662E-1,-2.698924780E0,-5.265658349E-2
1.078093448E1,-3.208962381E-1,-3.177947760E0,-1.999972761E-1
1.080078604E1,-3.474077880E-1,-3.172258139E0,-2.408379763E-1
1.082063917E1,-3.795043826E-1,-3.243554831E0,-2.932676673E-1
1.084049698E1,-3.973765671E-1,-3.297956705E0,-3.253642917E-1
1.086034542E1,-4.010592103E-1,-3.192591190E0,-3.157649636E-1
1.088019698E1,-3.917740583E-1,-3.022351742E0,-2.839825153E-1
1.090005011E1,-3.874805570E-1,-3.092932940E0,-2.652027905E-1
1.091990323E1,-4.005705118E-1,-3.576319218E0,-2.683443725E-1
1.093975479E1,-4.693015814E-1,-5.024628162E0,-3.127455413E-1
1.095960792E1,-5.982639790E-1,-7.534586430E0,-3.936939240E-1
1.097946104E1,-6.467142701E-1,-9.226333618E0,-4.493873715E-1
1.099931261E1,-6.049660444E-1,-9.695566177E0,-5.060582161E-1
1.101916573E1,-5.506513715E-1,-9.504749298E0,-5.355368257E-1
1.103901886E1,-4.976631701E-1,-8.894983292E0,-4.885700047E-1
1.105887042E1,-4.391771853E-1,-8.179520607E0,-4.232074320E-1
1.107872354E1,-3.456275463E-1,-7.245629787E0,-2.915397882E-1
1.109857667E1,-2.905624211E-1,-6.552035809E0,-2.050063759E-1
1.111842823E1,-2.243795246E-1,-5.808455944E0,-1.617222130E-1
1.113828136E1,-1.375144869E-1,-4.992252350E0,-1.169894189E-1
1.115813448E1,1.200961024E-1,-3.458387375E0,-2.123018503E-1
1.117798604E1,3.142814338E-1,-2.320659637E0,-2.507165372E-1
1.119783917E1,3.248057663E-1,-1.992590070E0,-2.207317948E-1
1.121769229E1,2.977706194E-1,-1.807078958E0,-1.961924583E-1
1.123754386E1,2.294933498E-1,-1.784773707E0,-1.443561763E-1
1.125739698E1,1.335700452E-1,-1.869352341E0,-5.890486389E-2
1.127725011E1,1.270774156E-1,-1.609228492E0,-3.637266159E-2
1.129710167E1,1.319119781E-1,-1.335299015E0,-3.600614145E-2
1.131695479E1,1.367465407E-1,-1.110797286E0,-3.736750036E-2
1.133680792E1,1.337445825E-1,-8.668875694E-1,-4.202752933E-2
1.135665948E1,1.273043156E-1,-5.618389249E-1,-5.249950290E-2
1.137651261E1,1.190663576E-1,-2.355845422E-1,-6.337290257E-2
1.139636573E1,1.073726565E-1,7.431612164E-2,-6.115633622E-2
1.141621886E1,1.113869101E-1,3.999945521E-1,-3.762929887E-2
1.143607042E1,1.832595766E-1,9.876294732E-1,2.626720443E-2
1.145592354E1,2.983116806E-1,1.733164310E0,8.723155409E-2
1.147577667E1,3.370405436E-1,2.085336924E0,9.341002256E-2
1.149562823E1,3.237236738E-1,2.136544704E0,7.751007378E-2
1.151548136E1,2.867401540E-1,2.031458616E0,6.604325771E-2
1.153533448E1,-2.560397983E-1,3.837106228E-1,1.823869050E-1
1.155518604E1,-4.211305082E-1,-1.261873096E-1,1.595230997E-1
1.157503917E1,-3.845658600E-1,2.230530791E-2,1.316676438E-1
1.159489229E1,-3.555759192E-1,1.317025423E-1,1.141445339E-1
1.161474542E1,-3.007551432E-1,2.948384583E-1,8.389797807E-2
1.163459698E1,-1.611462533E-1,6.717073917E-1,6.953391433E-2
1.165445011E1,-7.862707973E-2,8.849866390E-1,6.394886225E-2
1.167430948E1,-6.031857803E-2,9.153902531E-1,5.564109609E-2
1.169415479E1,-2.574360557E-2,9.848544002E-1,4.747295380E-2
1.171400792E1,1.135685742E-1,1.242779136E0,1.312487572E-2
1.173386104E1,3.009994924E-1,1.592316270E0,1.850049011E-3
1.175371417E1,3.422765136E-1,1.682829022E0,6.553710997E-2
1.177356573E1,2.970725000E-1,1.541055918E0,9.916960448E-2
1.179341886E1,2.293886244E-1,1.329940915E0,1.312313080E-1
1.181327667E1,1.433438957E-1,1.102437258E0,1.746550947E-1
1.183312354E1,5.201081187E-2,8.261864781E-1,1.878846884E-1
1.185297667E1,1.410226058E-2,6.613401771E-1,1.716705859E-1
1.187282979E1,6.195918657E-3,5.223944783E-1,1.513025910E-1
1.189268136E1,2.199114766E-3,3.223448694E-1,1.243372560E-1
1.191253448E1,-2.406809106E-2,2.412045002E-2,1.048768312E-1
1.193238761E1,-8.196066320E-2,-4.031710625E-1,6.902777404E-2
1.195224073E1,-1.309171468E-1,-7.759559155E-1,3.628539667E-2
1.197209229E1,-1.571494490E-1,-1.035800576E0,1.473057922E-2
1.199194542E1,-1.764004230E-1,-1.263688207E0,6.981316837E-4
1.201179854E1,-2.072578520E-1,-1.499290228E0,-2.242748067E-2
1.203165011E1,-2.443111837E-1,-1.745783091E0,-5.930628628E-2
1.205150323E1,-3.879517913E-1,-2.253097773E0,-1.571494490E-1
1.207135636E1,-4.658458233E-1,-2.559979200E0,-2.696708143E-1
1.209120792E1,-4.276056588E-1,-2.567309618E0,-3.231826127E-1
1.211106104E1,-3.444756269E-1,-2.436130524E0,-3.818256855E-1
1.213091417E1,-2.707005739E-1,-2.327763081E0,-3.892607689E-1
1.215076573E1,-2.364746630E-1,-2.282436848E0,-3.369881809E-1
1.217061886E1,-2.065073550E-1,-2.233061552E0,-2.968106866E-1
1.219047198E1,-6.220353395E-2,-1.939741492E0,-2.326349318E-1
1.221032354E1,-1.741838641E-2,-1.814182520E0,-2.021265775E-1
1.223017667E1,3.300417587E-2,-1.640888691E0,-1.743932962E-1
1.225002979E1,7.175048441E-2,-1.470300317E0,-1.511455178E-1
1.226988292E1,1.248957589E-1,-1.261035323E0,-1.289449185E-1
1.228973448E1,2.028596252E-1,-1.004035592E0,-9.690067917E-2
1.230958761E1,2.256710678E-1,-8.573057055E-1,-7.007496804E-2
1.232944073E1,2.076941729E-1,-8.175994754E-1,-2.717477642E-2
1.234929386E1,1.888620704E-1,-7.944564223E-1,2.666863054E-2
1.236914542E1,1.676912308E-1,-7.804937959E-1,6.365215778E-2
1.238899854E1,1.451939344E-1,-7.787659168E-1,8.567821234E-2
1.240885011E1,1.272345036E-1,-7.587819099E-1,9.889035672E-2
1.242870323E1,1.193979755E-1,-6.577622294E-1,1.025380939E-1
1.244855636E1,1.204277202E-1,-4.675911665E-1,9.810495377E-2
1.246840792E1,1.271995902E-1,-1.942725927E-1,9.271188825E-2
1.248826104E1,1.363625675E-1,1.405513585E-1,8.831366152E-2
1.250811886E1,1.441641897E-1,4.931253195E-1,8.594001085E-2
1.252796573E1,1.542870998E-1,8.645488620E-1,8.452629298E-2
1.254782042E1,1.802227050E-1,1.285592079E0,8.269369602E-2
1.256767198E1,1.968731433E-1,1.645688415E0,6.546729803E-2
1.258752354E1,1.825439930E-1,1.845772982E0,4.190535471E-2
1.260737667E1,1.166578084E-1,1.815386772E0,2.988003753E-2
1.262722979E1,-4.176398218E-1,-1.714611501E-1,5.073672161E-2
1.264708136E1,-5.676683187E-1,-6.479883790E-1,-2.436479554E-2
1.266693448E1,-5.045397878E-1,-3.150668442E-1,-2.101376466E-2
1.268678761E1,-3.993138671E-1,2.319717109E-1,3.630284918E-3
1.270663917E1,-7.518878579E-2,1.928519011E0,1.893507689E-1
1.272649229E1,-7.024950534E-2,2.173196793E0,2.450442314E-1
1.274634542E1,-1.328195538E-2,2.653598547E0,2.360557765E-1
1.276619854E1,7.559020817E-2,3.331624031E0,2.413441241E-1
1.278605011E1,4.553040266E-1,5.323079586E0,2.542246580E-1
1.280590323E1,5.905845165E-1,5.680104256E0,1.865582466E-1
1.282575636E1,6.209706664E-1,5.620012760E0,1.581268311E-1
1.284560792E1,6.264335513E-1,5.490299702E0,1.488416791E-1
1.286546104E1,6.428222060E-1,5.427188396E0,1.535366178E-1
1.288531417E1,6.358234286E-1,5.240909576E0,1.532573551E-1
1.290516729E1,5.837602615E-1,4.830791950E0,1.309695095E-1
1.292501886E1,5.172806978E-1,4.384371758E0,1.136907488E-1
1.294487198E1,2.602984011E-1,3.177040339E0,1.527163107E-2
1.296472511E1,3.902556375E-2,2.000356674E0,-8.539895713E-2
1.298457667E1,-3.869394958E-2,1.449216723E0,-1.177922711E-1
1.300442979E1,-1.002342552E-1,9.526705146E-1,-1.430297345E-1
1.302428292E1,-1.375319511E-1,4.325973094E-1,-1.714611501E-1
1.304413448E1,-1.618792862E-1,-9.272934496E-2,-1.866280586E-1
1.306398761E1,-1.833293885E-1,-5.641951561E-1,-1.753532290E-1
1.308384073E1,-2.115164548E-1,-1.076135159E0,-1.522276103E-1
1.310369386E1,-2.507688999E-1,-1.704017282E0,-1.295383424E-1
1.312354542E1,-2.944894135E-1,-2.436252832E0,-1.164832711E-1
1.314339854E1,-3.629237711E-1,-3.534675598E0,-1.159596741E-1
1.316325167E1,-6.055594087E-1,-6.102613449E0,-2.228261828E-1
1.318310323E1,-6.580240130E-1,-6.932657242E0,-3.858224750E-1
1.320295636E1,-5.481206775E-1,-6.446146488E0,-4.023507535E-1
1.322280948E1,-4.409923553E-1,-5.865440845E0,-3.700796068E-1
1.324266261E1,-3.599392474E-1,-5.355909348E0,-3.312285841E-1
1.326251417E1,-2.186373919E-1,-4.583723068E0,-2.559350729E-1
1.328236729E1,-6.958627701E-2,-3.820665359E0,-1.438674927E-1
1.330221886E1,-2.733185515E-2,-3.528916121E0,-1.023112014E-1
1.332207198E1,1.328195538E-2,-3.178017616E0,-9.264207631E-2
1.334192511E1,5.190609023E-2,-2.773555040E0,-1.125213802E-1
1.336177823E1,1.296954155E-1,-2.213409185E0,-1.159073189E-1
1.338162979E1,1.888271719E-1,-1.793500304E0,-9.758135676E-2
1.340148292E1,2.054427117E-1,-1.543673873E0,-7.735299319E-2
1.342133604E1,1.155582517E-1,-1.973740458E0,5.890486389E-2
1.344118761E1,3.579670191E-2,-2.203844786E0,1.092227027E-1
1.346104073E1,4.091051593E-2,-1.925970793E0,9.978047013E-2
1.348089386E1,6.099925563E-2,-1.624569893E0,8.848819137E-2
1.350074698E1,7.696902007E-2,-1.382300735E0,7.909832150E-2
1.352059854E1,7.511897385E-2,-1.300497174E0,7.468263805E-2
1.354045167E1,7.054620981E-2,-1.127063870E0,5.796238407E-2
1.356030323E1,6.902777404E-2,-8.123809695E-1,3.869394958E-2
1.358015636E1,8.443903178E-2,-2.901086211E-1,2.244493365E-2
1.360000948E1,1.589645892E-1,7.605446577E-1,8.133234456E-3
1.361986104E1,2.635970712E-1,2.322614431E0,-2.789036185E-2
1.363971417E1,3.750887215E-1,4.257137299E0,-1.148775741E-1
1.365956729E1,4.443608224E-1,5.683385372E0,-2.069087774E-1
1.367942042E1,4.759163857E-1,6.365425110E0,-2.659532726E-1
1.369927198E1,3.052406311E-1,5.613642216E0,-1.506568193E-1
1.371912511E1,-1.306204349E-1,2.165866375E0,5.152212083E-2
1.373897667E1,-5.583831668E-1,-2.234265804E0,5.738642439E-2
1.375883604E1,-6.191555262E-1,-2.601291180E0,-3.192207217E-2
1.377868292E1,-6.121044159E-1,-2.330014467E0,-5.881759524E-2
1.379853448E1,-4.423711598E-1,-3.298672289E-2,-1.727875881E-2
1.381838761E1,-2.864434421E-1,2.274286270E0,3.408627957E-2
1.383824073E1,-1.564687639E-1,4.250504971E0,1.107236892E-1
1.385809229E1,4.756545722E-1,1.084324169E1,4.693364799E-1
1.387794698E1,6.757740378E-1,1.056583881E1,4.601385891E-1
1.389780479E1,6.183701754E-1,9.178355217E0,3.876027167E-1
1.391765167E1,5.915619135E-1,8.060908318E0,3.335498869E-1
1.393750323E1,6.979048252E-1,7.310294151E0,3.197792172E-1
1.395735636E1,7.513816953E-1,7.008805752E0,3.750188947E-1
1.397720948E1,7.107853293E-1,6.666948318E0,4.054749012E-1
1.399706104E1,6.369928122E-1,6.105580807E0,3.763802648E-1
1.401691417E1,5.694311261E-1,5.548331738E0,3.444930911E-1
1.403676729E1,4.672769904E-1,4.921217442E0,2.686236203E-1
1.405661886E1,2.576455176E-1,3.340839386E0,1.120501384E-2
1.407647198E1,1.344427168E-1,1.729481697E0,-1.947438419E-1
1.409632511E1,8.557349443E-2,1.250842571E0,-2.282367051E-1
1.411617823E1,4.267330095E-2,9.955707192E-1,-2.427578419E-1
1.413602979E1,8.203047328E-4,1.091424227E0,-2.298249602E-1
1.415588292E1,-1.158898603E-2,1.345561624E0,-2.088286430E-1
1.417573604E1,1.083849464E-2,1.970843196E0,-1.702394187E-1
1.419558761E1,9.864600748E-2,3.377456427E0,-8.822639287E-2
1.421544073E1,2.852566242E-1,5.972795963E0,6.288421154E-2
1.423529386E1,4.997575879E-1,8.728705406E0,2.519557178E-1
1.425514698E1,6.058561206E-1,9.943140984E0,3.618765771E-1
1.427499854E1,6.222447753E-1,1.001965618E1,3.871314824E-1
1.429485167E1,6.127676368E-1,9.867463112E0,3.778812289E-1
1.431470948E1,5.868669748E-1,9.443330765E0,3.424685001E-1
1.433455636E1,5.474923253E-1,8.807297707E0,2.982593179E-1
1.435440948E1,5.237209201E-1,8.165330887E0,2.400874943E-1
1.437426261E1,5.960997343E-1,7.648573875E0,1.124864668E-1
1.439411417E1,6.180559993E-1,6.785421371E0,6.339035928E-2
1.441396729E1,6.133261323E-1,6.172025204E0,3.391174600E-2
1.443382042E1,6.006376147E-1,5.717419147E0,8.691739291E-3
1.445367354E1,5.975134969E-1,5.353430748E0,-1.933824830E-2
1.447352511E1,5.868844390E-1,5.085208893E0,-4.406956211E-2
1.449338292E1,4.717799425E-1,6.339716434E0,-2.656914592E-1
1.451323136E1,3.805341423E-1,6.511107922E0,-3.767118752E-1
1.453308292E1,3.582637310E-1,5.973267078E0,-3.655417562E-1
1.455293604E1,3.496767282E-1,5.513966560E0,-3.544763625E-1
1.457278917E1,3.685437143E-1,4.996528625E0,-3.089407384E-1
1.459264073E1,3.649483323E-1,3.993121386E0,-1.628741324E-1
1.461249386E1,3.257308006E-1,3.228946447E0,-6.976080686E-2
1.463234698E1,2.902831733E-1,2.915781975E0,-5.890486389E-2
1.465220011E1,2.607172728E-1,2.620995760E0,-5.213298276E-2
1.467205167E1,2.363175750E-1,2.396441698E0,-4.576253146E-2
1.469190479E1,2.024407387E-1,2.219866753E0,-3.370230645E-2
1.471175792E1,1.574461460E-1,2.116159439E0,-1.726130582E-2
1.473160948E1,1.199913844E-1,2.079856396E0,9.599310579E-4
1.475146261E1,1.282991469E-1,2.411661148E0,-1.308996975E-2
1.477131573E1,1.458571702E-1,2.963743687E0,-3.946189582E-2
1.479116729E1,1.755975783E-1,3.852709532E0,-8.169886470E-2
1.481102042E1,2.209761292E-1,5.360988140E0,-1.668011099E-1
1.483087354E1,2.697580755E-1,7.464127541E0,-3.067416251E-1
1.485072511E1,3.207217157E-1,9.326236725E0,-4.610461593E-1
1.487057823E1,3.249104917E-1,9.597618103E0,-5.071752071E-1
1.489043136E1,1.392947286E-1,8.368260384E0,-2.920110226E-1
1.491028448E1,-1.836435497E-1,4.915213585E0,-3.719296679E-2
1.493013604E1,-3.890338838E-1,2.094325304E0,2.258456126E-2
1.494998917E1,-3.703937829E-1,3.074013472E0,3.665191471E-4
1.496984073E1,-3.167597950E-1,4.320736885E0,4.904375412E-3
1.498970011E1,-2.998824716E-1,4.686854839E0,9.267698042E-3
1.500954698E1,-2.548704445E-1,4.967172146E0,2.687806962E-3
1.502939854E1,-1.491034776E-1,5.471397877E0,2.844886621E-3
1.504925167E1,5.009094719E-3,5.971277714E0,1.864011586E-2
1.506910479E1,5.110324174E-2,5.825594902E0,3.808308393E-2
1.508895636E1,9.051277488E-2,5.633660793E0,6.365215778E-2
1.510880948E1,3.463954926E-1,6.553100586E0,2.469815463E-1
1.512866261E1,4.446051717E-1,6.537287712E0,3.392221928E-1
1.514851417E1,4.240975678E-1,6.061772823E0,3.521899879E-1
1.516836729E1,3.851767182E-1,5.506967545E0,3.395538032E-1
1.518822042E1,3.327470124E-1,5.006616592E0,3.230255246E-1
1.520807198E1,2.807362080E-1,4.441216946E0,2.820102870E-1
1.522792511E1,2.329665422E-1,3.914913177E0,2.335425019E-1
1.524777823E1,1.002342552E-1,2.651050329E0,1.542871073E-2
1.526763136E1,2.722713538E-2,1.722797036E0,-1.248434037E-1
1.528748292E1,-1.736602560E-2,1.412355304E0,-1.469392627E-1
1.530733604E1,-7.559020817E-2,1.146820903E0,-1.644972861E-1
1.532718917E1,-1.180715263E-1,9.694082141E-1,-1.676214188E-1
1.534704698E1,-1.406735331E-1,9.261240363E-1,-1.554041207E-1
1.536689386E1,-1.482133567E-1,9.305048585E-1,-1.418429017E-1
1.538674698E1,-1.428901106E-1,9.387078881E-1,-1.282816976E-1
1.540660011E1,-1.329591870E-1,8.724551797E-1,-1.223999411E-1
1.542645167E1,-1.228537261E-1,6.634520292E-1,-1.286831200E-1
1.544630479E1,-1.149997413E-1,2.179741710E-1,-1.501681209E-1
1.546615792E1,-1.179842576E-1,-6.015975475E-1,-1.879196018E-1
1.548601573E1,-1.322436035E-1,-1.808457851E0,-2.313783020E-1
1.550586261E1,-2.207143307E-1,-4.644303799E0,-3.261147738E-1
1.552571573E1,-3.343352675E-1,-8.792357445E0,-4.382521808E-1
1.554556729E1,-2.536835968E-1,-8.023435593E0,-3.349984884E-1
1.556542667E1,1.732239276E-1,-1.295854568E0,-7.850491256E-2
1.558527354E1,2.112895548E-1,-1.085036278E0,-3.300417587E-2
1.560512511E1,1.584409922E-1,-2.422621727E0,-1.748819835E-2
1.562497823E1,1.266061813E-1,-3.362778187E0,1.233947743E-2
1.564483136E1,3.913028166E-2,-4.870917320E0,4.263839498E-2
1.566468448E1,-8.068656921E-2,-6.467247486E0,5.881759524E-2
1.568453604E1,-4.923573881E-2,-6.086923122E0,-4.328416660E-3
1.570439386E1,3.495894372E-2,-4.825119972E0,-2.452187613E-2
1.572424229E1,1.110902056E-1,-3.659396887E0,-4.014257342E-2
1.574409386E1,1.626995951E-1,-2.808042765E0,-5.539675057E-2
1.576394698E1,1.672898084E-1,-2.342266798E0,-4.471533373E-2
1.578380011E1,1.058193147E-1,-2.493115664E0,5.864306353E-3
1.580365167E1,8.232717961E-2,-2.343086958E0,1.911135577E-2
1.582350479E1,7.901105285E-2,-2.031284094E0,1.296779606E-2
1.584335792E1,7.033676654E-2,-1.829750776E0,9.093165398E-3
1.586321104E1,6.532767415E-2,-1.488242269E0,2.844886621E-3
1.588306261E1,6.820746511E-2,-9.358804226E-1,-1.726130582E-2
1.590291573E1,6.866125017E-2,-1.779886782E-1,-3.260274976E-2
1.592276886E1,1.041961536E-1,1.018120408E0,-7.250097394E-2
1.594262042E1,1.511978656E-1,2.245558023E0,-1.092750654E-1
1.596247354E1,2.330712676E-1,3.551919460E0,-1.379333735E-1
1.598233136E1,3.017674387E-1,4.400428772E0,-1.463807672E-1
1.600217979E1,3.640058637E-1,4.974188328E0,-1.324006766E-1
1.602203136E1,3.873932660E-1,5.100811958E0,-1.044230461E-1
1.604188917E1,3.656813800E-1,4.845348358E0,-7.693411410E-2
1.606173761E1,2.800555229E-1,4.351961136E0,-4.871213809E-2
1.608158917E1,-2.247984149E-2,3.588746071E0,1.851794310E-2
1.610144229E1,-3.843215108E-1,2.169775963E0,4.056145251E-2
1.612129542E1,-5.912302732E-1,3.627317846E-1,-4.932300374E-2
1.614114698E1,-4.909087718E-1,7.829023600E-1,-4.888667166E-2
1.616100011E1,-3.922801912E-1,1.067268848E0,-4.930555075E-2
1.618085167E1,-3.042981625E-1,1.319695830E0,-3.166027367E-2
1.620070479E1,-1.303411871E-1,2.172865152E0,9.276425093E-2
1.622055792E1,-4.263839498E-2,2.381850719E0,1.477072090E-1
1.624041104E1,-2.663372457E-2,2.180527210E0,1.392423660E-1
1.626026261E1,1.497841626E-1,2.648467302E0,2.608219981E-1
1.628011573E1,2.789908946E-1,2.927283764E0,3.704286814E-1
1.629996886E1,2.861816287E-1,2.828498125E0,3.953170776E-1
1.631982198E1,2.599493265E-1,2.577554703E0,3.777067065E-1
1.633967354E1,2.330363542E-1,2.342930079E0,3.573386967E-1
1.635952667E1,1.979552358E-1,2.038771391E0,3.159744143E-1
1.637937823E1,1.461189687E-1,1.727352381E0,2.722015381E-1
1.639923136E1,8.635888994E-2,1.338004351E0,2.092649788E-1
1.641908448E1,-2.234021388E-2,4.291764498E-1,1.480039209E-2
1.643893604E1,-1.203753576E-1,-1.667836607E-1,-9.595820308E-2
1.645878917E1,-1.916895062E-1,-5.297772288E-1,-1.507266313E-1
1.647864854E1,-2.518859208E-1,-9.164200425E-1,-2.100329250E-1
1.649849386E1,-2.806314826E-1,-1.299048543E0,-2.601587772E-1
1.651834854E1,-2.878222466E-1,-1.601112723E0,-2.881887555E-1
1.653820011E1,-2.870368361E-1,-1.834951878E0,-2.882062197E-1
1.655805323E1,-2.824117243E-1,-2.003690243E0,-2.710845470E-1
1.657790479E1,-2.788687050E-1,-2.216306448E0,-2.583436370E-1
1.659775792E1,-2.771582901E-1,-2.481928110E0,-2.542421222E-1
1.661761104E1,-2.757096589E-1,-2.794603825E0,-2.597573400E-1
1.663746261E1,-2.790606916E-1,-3.154455662E0,-2.728647888E-1
1.665731573E1,-3.581066430E-1,-3.971147537E0,-3.482106328E-1
1.667716886E1,-3.714758754E-1,-4.421826363E0,-3.896971047E-1
1.669702042E1,-3.420321643E-1,-4.520001411E0,-3.776368797E-1
1.671687354E1,-2.879793346E-1,-4.404407978E0,-3.481233716E-1
1.673673292E1,-6.667158008E-2,-3.512300491E0,-2.501231432E-1
1.675657979E1,4.461061582E-2,-3.067241669E0,-1.780759394E-1
1.677643136E1,6.621779501E-2,-2.972121239E0,-1.455080956E-1
1.679628448E1,8.852309734E-2,-2.856492996E0,-1.215098202E-1
1.681613761E1,9.358455241E-2,-2.804255486E0,-1.193630695E-1
1.683598917E1,1.496270746E-1,-2.494860888E0,-1.218763441E-1
1.685584229E1,2.283065170E-1,-2.085214615E0,-1.186649352E-1
1.687569542E1,2.752907872E-1,-1.793674827E0,-1.122595742E-1
1.689554854E1,2.464579493E-1,-1.743077755E0,-9.361945838E-2
1.691540636E1,1.579697430E-1,-1.866664529E0,-4.180063680E-2
1.693525323E1,1.246339604E-1,-1.766674638E0,-1.982693933E-2
1.695510636E1,1.250179410E-1,-1.556432247E0,-1.870992966E-2
1.697496417E1,1.368861794E-1,-1.296081543E0,-2.392846346E-2
1.699481104E1,1.370781660E-1,-1.096590400E0,-2.890265174E-2
1.701466417E1,1.231155246E-1,-9.797754884E-1,-2.925171889E-2
1.703451573E1,1.065523475E-1,-8.674460649E-1,-2.801253460E-2
1.705436886E1,9.435249865E-2,-6.828600764E-1,-2.736676298E-2
1.707422198E1,9.688322991E-2,-3.763802648E-1,-2.972295694E-2
1.709407511E1,1.287529320E-1,1.098510250E-1,-3.368485486E-3
1.711392667E1,1.848478168E-1,7.641924024E-1,5.330235511E-2
1.713377979E1,2.252521962E-1,1.335648060E0,1.023635566E-1
1.715363292E1,2.259154171E-1,1.640975952E0,1.099557430E-1
1.717348448E1,2.187246680E-1,1.857536435E0,1.055575162E-1
1.719333761E1,1.331511736E-1,1.693388224E0,1.130973324E-1
1.721319073E1,-1.438325793E-1,7.010464072E-1,1.310742199E-1
1.723304229E1,-4.596848190E-1,-6.503969431E-1,5.633922666E-2
1.725289542E1,-5.648234487E-1,-1.100238085E0,-5.522221699E-2
1.727274854E1,-5.167919993E-1,-8.011584878E-1,-6.942919642E-2
1.729260011E1,-4.373795092E-1,-3.446327150E-1,-6.293657422E-2
1.731245323E1,-3.760660887E-1,2.951351739E-2,-5.619960278E-2
1.733230636E1,-3.226764798E-1,3.680375814E-1,-3.457497060E-2
1.735215792E1,-2.619215548E-1,7.353595495E-1,1.553343027E-3
1.737201104E1,-1.135685742E-1,1.715274692E0,1.638864130E-1
1.739186417E1,4.157374427E-2,2.664646626E0,2.623753548E-1
1.741171729E1,1.330988109E-1,3.167021990E0,2.974739075E-1
1.743157511E1,2.977531552E-1,4.134265900E0,4.015653431E-1
1.745142198E1,3.781779408E-1,4.756039619E0,4.838750660E-1
1.747127979E1,3.294309080E-1,4.697833061E0,4.985882044E-1
1.749112667E1,2.932502329E-1,4.414495945E0,4.615697861E-1
1.751097979E1,2.737025321E-1,4.122136116E0,4.143237174E-1
1.753083136E1,2.476098537E-1,3.758933067E0,3.641803861E-1
1.755068604E1,8.372344077E-2,2.068093061E0,1.331511736E-1
1.757053761E1,1.216494478E-2,8.432732821E-1,-6.134832278E-2
1.759039073E1,-5.494296551E-2,3.081204295E-1,-1.092052534E-1
1.761024229E1,-1.869596690E-1,-5.509480834E-1,-1.695936471E-1
1.763009542E1,-3.019768596E-1,-1.570290208E0,-2.360906899E-1
1.764995323E1,-4.016177058E-1,-2.679586649E0,-2.945592105E-1
1.766980011E1,-4.746946394E-1,-3.715701342E0,-3.375815749E-1
1.768965323E1,-5.271766782E-1,-4.604632378E0,-3.727674186E-1
1.770950636E1,-5.583308339E-1,-5.258799076E0,-4.068188071E-1
1.772935792E1,-5.601459742E-1,-5.617202759E0,-4.302934706E-1
1.774921104E1,-5.290965438E-1,-5.642439842E0,-4.342902899E-1
1.776906417E1,-4.791801572E-1,-5.507264137E0,-4.268202782E-1
1.778891573E1,-4.172907770E-1,-5.227732182E0,-4.079532623E-1
1.780876886E1,-3.613704145E-1,-4.935197830E0,-3.873932660E-1
1.782862198E1,-3.227462769E-1,-4.692579269E0,-3.717202246E-1
1.784847354E1,-2.734232843E-1,-4.395838737E0,-3.384193480E-1
1.786832667E1,2.457423508E-2,-3.238056898E0,-1.704139411E-1
1.788817979E1,1.720894575E-1,-2.698977232E0,-5.532693863E-2
1.790803292E1,1.481959075E-1,-2.764915705E0,-4.761258140E-2
1.792788448E1,1.382300705E-1,-2.712643147E0,-3.672172874E-2
1.794773761E1,1.483355314E-1,-2.531390667E0,-2.633701824E-2
1.796759542E1,1.441467404E-1,-2.353559017E0,-2.504547499E-2
1.798744229E1,1.301841140E-1,-2.112284660E0,-4.612905160E-2
1.800729542E1,1.656142920E-1,-1.483023763E0,-1.481784582E-1
1.802714854E1,1.818807572E-1,-1.192775488E0,-1.601863205E-1
1.804700011E1,2.057743222E-1,-8.916887045E-1,-1.675865203E-1
1.806685323E1,2.643475533E-1,-4.516912103E-1,-1.734682769E-1
1.808670636E1,2.051285505E-1,-6.187715530E-1,-1.117883399E-1
1.810655948E1,1.574286968E-1,-6.744650602E-1,-8.285077661E-2
1.812641729E1,1.372526884E-1,-6.366612315E-1,-6.963863969E-2
1.814626417E1,1.222952232E-1,-6.061702967E-1,-6.087708473E-2
1.816611729E1,1.086991057E-1,-5.368109345E-1,-5.351179466E-2
1.818596886E1,7.981390506E-2,-4.796513915E-1,-3.565707803E-2
1.820582198E1,2.527236752E-2,-5.322905183E-1,2.984513063E-3
1.822567511E1,3.609341010E-2,-2.080956101E-1,6.928957067E-3
1.824552823E1,6.061528623E-2,2.613804936E-1,9.093165398E-3
1.826537979E1,8.529423922E-2,7.967427969E-1,1.949532703E-2
1.828523292E1,1.245990545E-1,1.641464710E0,2.673844434E-2
1.830508604E1,2.247634977E-1,3.462977648E0,-6.492624991E-3
1.832493761E1,3.827681541E-1,6.203022480E0,-9.911724925E-2
1.834479073E1,4.983264208E-1,8.045845985E0,-1.801877916E-1
1.836464386E1,5.105960965E-1,8.316319466E0,-2.024058253E-1
1.838449698E1,4.563337862E-1,7.826684475E0,-1.922829300E-1
1.840434854E1,1.274788529E-1,6.321652412E0,-3.752457723E-2
1.842420167E1,-4.494222701E-1,1.239201188E0,-3.316125658E-4
1.844405323E1,-6.336417794E-1,-1.118721128E0,-1.513200402E-1
1.846391104E1,-4.896346629E-1,1.206197023E0,-6.724753231E-2
1.848376417E1,-3.804817796E-1,2.648659229E0,-1.452113967E-2
1.850361261E1,-3.133913279E-1,3.383949041E0,1.706931926E-2
1.852346417E1,-2.301042080E-1,4.147041798E0,6.838200241E-2
1.854331729E1,-1.279850006E-1,4.898563385E0,1.480388194E-1
1.856317042E1,-1.047197543E-2,5.498206139E0,2.335599661E-1
1.858302198E1,1.373574138E-1,6.141045570E0,3.643200397E-1
1.860287511E1,2.687108815E-1,6.356070042E0,4.643797576E-1
1.862272823E1,3.549999595E-1,6.223704338E0,5.196892619E-1
1.864257979E1,4.321435094E-1,6.069242954E0,5.834984779E-1
1.866243292E1,4.120896757E-1,5.836817265E0,6.153681874E-1
1.868228448E1,3.413340449E-1,5.418549061E0,5.832715631E-1
1.870213761E1,3.004584312E-1,4.880394459E0,5.201953650E-1
1.872199073E1,2.638588846E-1,4.393098354E0,4.563163221E-1
1.874184386E1,2.365444750E-1,3.880320787E0,3.855257630E-1
1.876169698E1,1.944122314E-1,2.912273884E0,1.962971836E-1
1.878154854E1,1.601339579E-1,2.351202726E0,1.039867178E-1
1.880140167E1,1.083151326E-1,1.784337401E0,1.727875904E-3
1.882125948E1,6.859143823E-2,1.490266800E0,-4.822344705E-2
1.884110636E1,5.256931856E-2,1.392284036E0,-6.414084882E-2
1.886095948E1,5.302310362E-2,1.379612923E0,-7.290240377E-2
1.888081104E1,5.625196174E-2,1.520234108E0,-6.632251292E-2
1.890066573E1,5.958554149E-2,1.798875928E0,-5.387831479E-2
1.892051729E1,6.342526525E-2,2.120959044E0,-4.052654654E-2
1.894037042E1,7.888887823E-2,2.485331297E0,-2.368411794E-2
1.896022823E1,1.143190637E-1,2.985054016E0,6.405358203E-3
1.898007511E1,1.716531366E-1,3.703850508E0,5.082398653E-2
1.899992667E1,2.607696354E-1,5.005482197E0,1.474105120E-1
1.901977979E1,3.525215983E-1,7.001492977E0,3.157126009E-1
1.903963292E1,3.992440701E-1,7.963221550E0,4.036422968E-1
1.905948604E1,3.891386092E-1,-2.395638973E-1,-1.309869587E-1
1.907933761E1,4.770683050E-1,-5.853834152E-1,-4.612905160E-2
1.909919073E1,4.957258701E-1,5.398827195E-1,-2.619739249E-2
1.911904386E1,5.198288560E-1,2.032819986E0,-6.911503617E-3
1.913889542E1,5.463229418E-1,3.783803940E0,3.543018363E-3
1.915874854E1,5.559746027E-1,5.446527004E0,1.343903481E-3
1.917860167E1,5.383468270E-1,6.484125137E0,-8.133234456E-3
1.919845323E1,5.002288222E-1,1.016282558E1,-1.749168932E-1
1.921830636E1,3.812322617E-1,1.267564583E1,-3.047519326E-1
1.923815948E1,3.395363390E-1,1.157497120E1,-2.935469151E-1
1.925801261E1,2.991319895E-1,1.157692623E1,-3.437949419E-1
1.927786417E1,3.392047286E-1,9.391808510E0,-2.427578419E-1
1.929771729E1,3.298148811E-1,5.501749039E0,-2.151990868E-2
1.931757042E1,2.929360569E-1,4.913014412E0,-8.517206647E-3
1.933742198E1,2.637192607E-1,4.504939079E0,-1.015781611E-2
1.935727511E1,2.403841913E-1,4.101191998E0,-1.160643995E-2
1.937712823E1,2.168222517E-1,3.723677397E0,-1.066396199E-2
1.939698136E1,1.964018941E-1,3.791954756E0,-2.490584925E-2
1.941683292E1,1.821774691E-1,5.049429417E0,-8.349654824E-2
1.943668604E1,2.253220081E-1,1.246667767E1,-4.379729331E-1
1.945654386E1,2.409427017E-1,1.415489960E1,-5.669003725E-1
1.947639073E1,2.935818434E-1,1.396912670E1,-6.287548542E-1
1.949624386E1,3.925420046E-1,1.344034386E1,-6.604849696E-1
1.951610167E1,4.504694641E-1,1.250435925E1,-6.178640127E-1
1.953594854E1,4.347440600E-1,1.125763512E1,-5.393765569E-1
1.955580167E1,3.870267570E-1,1.001096439E1,-4.594753683E-1
1.957565479E1,2.157052457E-1,9.091978073E0,-3.000744581E-1
1.959550636E1,-9.058258496E-3,8.227481842E0,-1.452113986E-1
1.961535948E1,-1.477246732E-1,7.339161873E0,-6.075491011E-2
1.963521261E1,-2.333679795E-1,6.375617981E0,-2.092649788E-2
1.965506573E1,-2.834938169E-1,5.655722141E0,1.206022501E-2
1.967491729E1,-3.097784817E-1,4.938583851E0,2.645919099E-2
1.969477042E1,-2.984338403E-1,4.247887135E0,2.080432512E-2
1.971462354E1,-2.443286479E-1,3.722368479E0,1.729621366E-2
1.973447511E1,-1.801179796E-1,3.528252840E0,5.466371030E-2
1.975432823E1,-8.541641384E-2,3.538236141E0,1.264316440E-1
1.977418136E1,8.407250792E-2,3.779213667E0,2.583436370E-1
1.979403292E1,2.343104482E-1,3.864700079E0,3.805865049E-1
1.981388604E1,2.522175312E-1,3.653148651E0,4.152661860E-1
1.983373917E1,2.304358184E-1,3.315758944E0,3.992615044E-1
1.985359073E1,2.157925069E-1,3.038042307E0,3.856304884E-1
1.987344854E1,1.846732944E-1,2.727408648E0,3.462209702E-1
1.989329698E1,1.351059377E-1,2.430667639E0,2.950653732E-1
1.991315011E1,3.752457723E-2,1.922253251E0,1.733984649E-1
1.993300167E1,-9.150761366E-2,7.608239055E-1,-8.888962120E-2
1.995285948E1,-1.935919225E-1,-1.073377505E-1,-2.529331148E-1
1.997270792E1,-2.448871434E-1,-5.889962316E-1,-3.076840937E-1
1.999255948E1,-3.037571013E-1,-1.126819491E0,-3.733782768E-1
2.001241729E1,-3.307747841E-1,-1.519483685E0,-4.047593176E-1
2.003226573E1,-3.279997110E-1,-1.681589842E0,-3.902381659E-1
2.005211886E1,-3.167074323E-1,-1.814007998E0,-3.592760265E-1
2.007197042E1,-3.042981625E-1,-1.994056106E0,-3.350334167E-1
2.009182354E1,-2.984338403E-1,-2.366369724E0,-3.336196840E-1
2.011167511E1,-2.975960970E-1,-2.914490461E0,-3.508286178E-1
2.013152823E1,-3.007900417E-1,-3.673097849E0,-3.821572959E-1
2.015138136E1,-3.053453565E-1,-4.531747341E0,-4.185997546E-1
2.017123292E1,-3.029367924E-1,-5.312485695E0,-4.423013330E-1
2.019108604E1,-2.873161137E-1,-5.859611511E0,-4.365417361E-1
2.021094386E1,-2.495646328E-1,-5.949164391E0,-3.901683390E-1
2.023079229E1,-1.776570678E-1,-5.620693207E0,-3.108606040E-1
2.025064386E1,-2.933898382E-2,-4.514451027E0,-1.850223541E-1
2.027049698E1,1.847780049E-1,-2.935853243E0,-6.136577576E-2
2.029034854E1,2.645570040E-1,-2.517044067E0,-2.246238664E-2
2.031020167E1,2.522349954E-1,-2.814273596E0,-9.005898610E-3
2.033005479E1,1.547932476E-1,-3.596442938E0,-3.700098023E-3
2.034990636E1,1.164483652E-1,-3.926362514E0,-1.035154760E-1
2.036975948E1,1.583711803E-1,-3.570175648E0,-1.774650812E-1
2.038961261E1,1.899092793E-1,-3.162781000E0,-2.095616758E-1
2.040946573E1,2.104343474E-1,-2.783520937E0,-2.140646279E-1
2.042931729E1,2.590766847E-1,-2.234597445E0,-1.840100586E-1
2.044917667E1,2.318669856E-1,-2.068878412E0,-9.695304185E-2
2.046902354E1,1.976934373E-1,-1.956252337E0,-7.133160532E-2
2.048887511E1,1.738871485E-1,-1.775697947E0,-6.038839370E-2
2.050872823E1,1.569923609E-1,-1.567392945E0,-5.649630725E-2
2.052858136E1,1.437627673E-1,-1.361670971E0,-5.263913050E-2
2.054843448E1,1.278628260E-1,-1.224418283E0,-4.370304570E-2
2.056828604E1,1.077740788E-1,-1.085909009E0,-2.984512970E-2
2.058813917E1,1.016479731E-1,-7.754148841E-1,-2.000147291E-2
2.060799229E1,1.072853878E-1,-2.668608427E-1,-1.521927118E-2
2.062784386E1,1.214749143E-1,3.954392374E-1,-1.459095255E-2
2.064769698E1,1.467647403E-1,1.218780875E0,-1.991420612E-2
2.066755011E1,1.848652810E-1,2.171451330E0,-2.972295694E-2
2.068740167E1,2.308721542E-1,3.134663582E0,-5.298819765E-2
2.070725479E1,2.731265724E-1,3.892939329E0,-8.381070942E-2
2.072710792E1,2.935294807E-1,4.300892830E0,-1.121374071E-1
2.074696104E1,2.887298167E-1,4.349430084E0,-1.347394139E-1
2.076681261E1,9.798278660E-2,3.665435791E0,-6.316346675E-2
2.078666573E1,-3.603581190E-1,9.301732183E-1,3.117158078E-2
2.080651886E1,-5.561665893E-1,-8.933118582E-1,-6.037093699E-2
2.082637042E1,-5.308942795E-1,-6.513743401E-1,-1.281944364E-1
2.084622979E1,-4.661948979E-1,3.159045801E-2,-1.333256960E-1
2.086607667E1,-3.866253197E-1,7.350977659E-1,-1.458920687E-1
2.088592979E1,-3.042981625E-1,1.494298577E0,-1.218588874E-1
2.090578136E1,-1.811651736E-1,2.568304300E0,-5.262167752E-2
2.092563448E1,-1.883210242E-2,3.828903198E0,5.414011329E-2
2.094549229E1,5.747369304E-2,4.356062412E0,1.179668009E-1
2.096533917E1,1.152440906E-1,4.562063694E0,1.561371535E-1
2.098519229E1,3.504097462E-1,5.594530582E0,3.203028142E-1
2.100504542E1,4.103443623E-1,5.541821957E0,3.618591130E-1
2.102489698E1,3.716853261E-1,5.095401287E0,3.391000330E-1
2.104475011E1,3.304781020E-1,4.617111206E0,3.022212088E-1
2.106460323E1,2.869844735E-1,4.131560802E0,2.571568191E-1
2.108445479E1,2.444508076E-1,3.686938286E0,2.125985622E-1
2.110430792E1,1.299397647E-1,2.720811129E0,5.928883329E-2
2.112416104E1,6.440264732E-2,1.950003982E0,-5.288347602E-2
2.114401417E1,1.340412907E-2,1.542103052E0,-9.436995536E-2
2.116386573E1,-5.145230517E-2,1.158043385E0,-1.328020990E-1
2.118371886E1,-9.902998060E-2,9.553408623E-1,-1.451415867E-1
2.120357198E1,-1.183507740E-1,9.046216011E-1,-1.331511736E-1
2.122342354E1,-1.147553995E-1,9.501397610E-1,-1.127133593E-1
2.124327667E1,-9.622000158E-2,1.063935280E0,-9.190903604E-2
2.126312979E1,-7.335618883E-2,1.185026169E0,-7.627088577E-2
2.128298136E1,-4.865977913E-2,1.333344221E0,-6.503096968E-2
2.130283448E1,-2.312561311E-2,1.536064267E0,-5.593780056E-2
2.132268761E1,-1.345648803E-2,1.818668008E0,-5.562364310E-2
2.134253917E1,4.906469584E-1,1.269739246E1,4.035026729E-1
2.136239229E1,5.901481509E-1,1.488135815E1,5.884726644E-1
2.138224542E1,5.342452526E-1,1.396785259E1,5.288347602E-1
2.140210323E1,5.002811551E-1,1.447289848E1,4.525987804E-1
2.142195011E1,4.356690943E-1,1.502772141E1,3.415260315E-1
2.144180792E1,4.224394858E-1,1.362374306E1,2.227563709E-1
2.146165479E1,4.265759289E-1,1.190942860E1,1.392249167E-1
2.148150792E1,4.563861489E-1,1.046492481E1,8.478809148E-2
2.150136104E1,4.501029551E-1,9.381022453E0,4.171336815E-2
2.152121261E1,4.375191331E-1,7.889219761E0,4.391248524E-2
2.154107198E1,4.047942162E-1,6.840521336E0,4.504694790E-2
2.156091886E1,3.983888626E-1,6.675116539E0,1.052433532E-2
2.158077042E1,4.194200635E-1,7.333611488E0,-6.080726907E-2
2.160062354E1,4.227885604E-1,7.081272125E0,-6.487388909E-2
2.162047667E1,4.049338400E-1,5.982534885E0,-1.012290921E-2
2.164032823E1,3.645469248E-1,4.859555244E0,3.984586522E-2
2.166018136E1,3.301115632E-1,4.313947678E0,4.677482322E-2
2.168003448E1,3.007202148E-1,3.935752392E0,3.832742944E-2
2.169988604E1,2.681523860E-1,3.809914112E0,1.918116771E-2
2.171973917E1,2.517288327E-1,4.462248325E0,-3.879866749E-2
2.173959229E1,2.477843910E-1,5.799135685E0,-1.284213215E-1
2.175944542E1,2.550100684E-1,7.482959747E0,-2.321811467E-1
2.177929698E1,3.014881611E-1,9.291661263E0,-3.740240633E-1
2.179915011E1,3.613006175E-1,1.009180832E1,-4.586201608E-1
2.181900323E1,4.903851449E-1,1.070122433E1,-5.212076902E-1
2.183885479E1,5.662196875E-1,1.040928364E1,-5.014330745E-1
2.185870792E1,5.552415848E-1,9.546741486E0,-4.392993748E-1
2.187856104E1,5.041383505E-1,8.544573784E0,-3.708301187E-1
2.189841417E1,3.507413566E-1,7.770694733E0,-2.600540519E-1
2.191826573E1,3.565707803E-2,7.433863640E0,-1.073901057E-1
2.193812511E1,-1.874483675E-1,6.576575279E0,-3.131120652E-2
2.195797667E1,-2.703166008E-1,5.152438641E0,-2.413790300E-2
2.197782354E1,-2.745577395E-1,4.226664066E0,-2.206096239E-2
2.199767667E1,-2.732661963E-1,3.553298473E0,-1.764527895E-2
2.201752979E1,-2.576105893E-1,3.071377993E0,-1.263618376E-2
2.203738136E1,-1.549503356E-1,3.244706631E0,7.152359188E-2
2.205723448E1,1.469218135E-1,3.887005329E0,2.745228410E-1
2.207708761E1,2.744355798E-1,3.622692585E0,3.267081678E-1
2.209694073E1,2.552020550E-1,3.243432522E0,3.179117143E-1
2.211679229E1,2.608743608E-1,2.979416609E0,3.254689872E-1
2.213664542E1,2.988701761E-1,2.851326942E0,3.691546023E-1
2.215649854E1,2.778913081E-1,2.697179556E0,3.808831871E-1
2.217635011E1,2.354100049E-1,2.424838305E0,3.461686075E-1
2.219620323E1,1.974840015E-1,2.135480165E0,3.021339476E-1
2.221605636E1,1.283689588E-1,1.825387478E0,2.308547050E-1
2.223591417E1,-4.040437192E-2,7.965508103E-1,-4.675737023E-2
2.225576104E1,-1.305157244E-1,1.642529368E-1,-1.954245120E-1
2.227561417E1,-1.519832760E-1,-5.145230517E-2,-2.292664498E-1
2.229546729E1,-1.908342987E-1,-3.104417026E-1,-2.747322619E-1
2.231531886E1,-2.292838991E-1,-4.784296453E-1,-2.986607552E-1
2.233517198E1,-2.442588210E-1,-5.296899676E-1,-2.890963256E-1
2.235502511E1,-2.358288914E-1,-5.223944783E-1,-2.609267235E-1
2.237487823E1,-2.227738202E-1,-5.247157812E-1,-2.303311080E-1
2.239472979E1,-2.124240249E-1,-5.489584208E-1,-2.062979192E-1
2.241458292E1,-2.018298805E-1,-6.153856516E-1,-1.914800704E-1
2.243444073E1,-1.936442852E-1,-7.337363958E-1,-1.848478168E-1
2.245428761E1,-1.935221106E-1,-9.578017592E-1,-1.858077496E-1
2.247414073E1,-2.103994340E-1,-1.451485634E0,-2.117258906E-1
2.249399386E1,-2.583261728E-1,-2.351325035E0,-2.582912743E-1
2.251384542E1,-3.223274052E-1,-3.481076717E0,-2.915747166E-1
2.253369854E1,-4.101174772E-1,-5.128074169E0,-3.386113346E-1
2.255355167E1,-2.044653147E-1,-4.089201927E0,-2.471211702E-1
2.257340323E1,2.411346883E-1,-1.676982164E0,-1.270076036E-1
2.259325636E1,2.712416053E-1,-1.707525373E0,-9.283406287E-2
2.261310948E1,2.059139460E-1,-2.302595377E0,-6.951646507E-2
2.263296104E1,1.414065808E-1,-3.072652102E0,-5.389576778E-2
2.265281417E1,5.527457595E-2,-4.072481632E0,-5.256931856E-2
2.267266729E1,-1.720894687E-2,-4.975200653E0,-7.922049612E-2
2.269251886E1,-1.851794310E-2,-5.196648121E0,-1.455255598E-1
2.271237198E1,2.282890677E-2,-4.870149136E0,-2.016204298E-1
2.273222511E1,4.852015153E-2,-4.398962975E0,-2.027897984E-1
2.275207667E1,7.744026184E-2,-3.745406866E0,-1.674468815E-1
2.277192979E1,9.541714936E-2,-3.060173035E0,-9.494590759E-2
2.279178292E1,5.850343779E-2,-2.781199694E0,-2.387610450E-2
2.281163448E1,4.934045672E-2,-2.469047546E0,-1.562069636E-2
2.283148761E1,4.684463516E-2,-2.188904762E0,-1.495747175E-2
2.285134073E1,4.033455998E-2,-1.907767057E0,-7.190756500E-3
2.287119229E1,2.453932911E-2,-1.530531526E0,1.476548519E-2
2.289104542E1,2.823942713E-2,-8.666257858E-1,2.607521974E-2
2.291089854E1,4.253367335E-2,-8.881980181E-2,1.687733456E-2
2.293075011E1,6.654940546E-2,7.271565199E-1,-1.535889693E-3
2.295060323E1,9.979792684E-2,1.514858484E0,-2.223549411E-2
2.297045636E1,1.417381912E-1,2.263744354E0,-4.248131439E-2
2.299030792E1,1.856506765E-1,2.931332827E0,-6.009168550E-2
2.301016104E1,2.269975245E-1,3.424440622E0,-7.311183959E-2
2.303001417E1,2.543642819E-1,3.654283047E0,-7.621853054E-2
2.304986729E1,2.530552745E-1,3.632518768E0,-6.958627701E-2
2.306971886E1,2.320415229E-1,3.431840897E0,-6.450736523E-2
2.308957198E1,3.736750036E-2,2.935992956E0,-1.563815027E-2
2.310942511E1,-2.907893062E-1,1.941539168E0,2.766346931E-2
2.312927667E1,-4.272216856E-1,1.225797057E0,6.736970972E-3
2.314912979E1,-3.925594687E-1,1.302242517E0,1.919862116E-4
2.316898292E1,-3.989124596E-1,1.276202202E0,-1.570796303E-4
2.318883448E1,-4.324227870E-1,1.070462823E0,-1.577777602E-2
2.320868761E1,-4.194026291E-1,9.589013457E-1,-4.066617042E-2
2.322854073E1,-3.294483423E-1,1.192304254E0,-3.010693006E-2
2.324839386E1,-2.027723491E-1,1.649981856E0,2.593559213E-2
2.326824542E1,-9.651671164E-3,2.339072704E0,1.455604583E-1
2.328809854E1,9.396852553E-2,2.667177200E0,2.281319797E-1
2.330795167E1,1.253844500E-1,2.660981417E0,2.490933836E-1
2.332780323E1,1.836958975E-1,2.952538490E0,3.472332656E-1
2.334765636E1,1.751088798E-1,3.140178919E0,4.208337963E-1
2.336750948E1,1.184554994E-1,2.960968494E0,4.038866460E-1
2.338736261E1,9.206611663E-2,2.647524834E0,3.539178669E-1
2.340721417E1,6.597344577E-2,2.322684050E0,2.956413329E-1
2.342707198E1,3.989822790E-2,1.907383084E0,2.175552845E-1
2.344691886E1,-5.689773243E-3,9.804910421E-1,1.450368576E-2
2.346677198E1,-3.769911081E-2,6.174975038E-1,-4.937536269E-2
2.348662511E1,-7.967428118E-2,2.708750963E-1,-1.144936010E-1
2.350647823E1,-1.200088412E-1,-5.016076192E-2,-1.743234843E-1
2.352632979E1,-1.485973299E-1,-2.768441141E-1,-2.094046026E-1
2.354618292E1,-1.675516069E-1,-4.131194353E-1,-2.104168981E-1
2.356603604E1,-1.831024885E-1,-5.997126102E-1,-2.065422684E-1
2.358588917E1,-1.936093718E-1,-8.716697693E-1,-2.130523473E-1
2.360574073E1,-2.015506178E-1,-1.230561852E0,-2.336297780E-1
2.362559386E1,-2.091777027E-1,-1.685359716E0,-2.649758756E-1
2.364544698E1,-2.151118368E-1,-2.203844786E0,-2.975786328E-1
2.366529854E1,-2.121796757E-1,-2.688348055E0,-3.215594590E-1
2.368515167E1,-2.027374506E-1,-3.103579283E0,-3.327819407E-1
2.370500479E1,-2.134712189E-1,-3.655836344E0,-3.477742970E-1
2.372485636E1,-1.962448210E-1,-3.955334902E0,-3.375990391E-1
2.374470948E1,1.679006778E-2,-2.767882824E0,-2.257059813E-1
2.376456261E1,3.549650609E-1,-9.807179570E-1,-1.189616397E-1
2.378441417E1,4.058414102E-1,-6.536607146E-1,-6.639232486E-2
2.380426729E1,3.816336989E-1,-8.991936445E-1,-5.143485218E-2
2.382412042E1,3.396061659E-1,-1.179982185E0,-2.909463830E-2
2.384397198E1,2.442239225E-1,-1.762922168E0,-1.117010717E-3
2.386382511E1,1.331686229E-1,-2.621432066E0,1.247910410E-2
2.388367823E1,5.960299447E-2,-3.313333035E0,-8.063420653E-3
2.390352979E1,3.424336016E-2,-3.606391191E0,-6.887069345E-2
2.392338917E1,3.099704720E-2,-3.354383230E0,-6.895796210E-2
2.394323604E1,6.574655324E-2,-2.871293545E0,-8.162904531E-2
2.396308761E1,2.154434472E-1,-1.710981131E0,-1.140223593E-1
2.398294073E1,1.123642996E-1,-1.869823575E0,-4.132939503E-2
2.400279386E1,8.665559441E-2,-1.733635545E0,-2.665117756E-2
2.402264542E1,7.279768586E-2,-1.528716445E0,-1.809906401E-2
2.404249854E1,7.061602175E-2,-1.179039717E0,-2.403318323E-2
2.406235167E1,6.892304868E-2,-7.024426460E-1,-3.166027367E-2
2.408220479E1,2.932153083E-2,-3.689102530E-1,-9.477137588E-3
2.410205636E1,2.188642882E-2,1.653873920E-1,1.937315450E-3
2.412190948E1,4.829325899E-2,8.683187366E-1,1.014036313E-2
2.414176261E1,9.449212253E-2,1.644955397E0,2.251474746E-2
2.416161417E1,1.537635028E-1,2.412847757E0,3.488913178E-2
2.418146729E1,2.063677311E-1,2.979975224E0,4.495968297E-2
2.420132042E1,2.372076958E-1,3.263608694E0,5.403539166E-2
2.422117198E1,2.461263239E-1,3.279194355E0,5.801474303E-2
2.424102511E1,2.253743708E-1,3.063227415E0,5.084143952E-2
2.426087823E1,1.663996875E-1,2.760028839E0,4.728097096E-2
2.428072979E1,-1.549154222E-1,2.011265039E0,7.059856504E-2
2.430058292E1,-4.308345318E-1,1.120222092E0,4.495968297E-2
2.432043604E1,-5.335471630E-1,5.938308239E-1,-7.120943163E-3
2.434028917E1,-5.079955459E-1,6.479883790E-1,-9.948376566E-3
2.436014073E1,-4.813094437E-1,7.060903907E-1,-1.001818944E-2
2.437999386E1,-4.822344780E-1,7.177666426E-1,-4.293509759E-3
2.439984698E1,-4.649557173E-1,8.069529533E-1,1.481784508E-2
2.441970479E1,-3.913202584E-1,9.272759557E-1,2.755874954E-2
2.443955167E1,-1.778490543E-1,1.836435437E0,2.515892088E-1
2.445940479E1,-4.352851212E-2,2.207352877E0,3.693640232E-1
2.447925636E1,-2.094394993E-3,2.140140057E0,3.771831095E-1
2.449910948E1,6.508332491E-2,2.157314301E0,4.129449129E-1
2.451896261E1,1.452812105E-1,2.257827759E0,4.822519124E-1
2.453881573E1,1.586155146E-1,2.280918360E0,5.323952436E-1
2.455866729E1,1.176875532E-1,2.088862419E0,5.052379370E-1
2.457852042E1,7.963937521E-2,1.794180989E0,4.440641105E-1
2.459837354E1,5.724680144E-3,1.459950447E0,3.737797141E-1
2.461822511E1,-7.894124091E-2,8.160985112E-1,1.958782971E-1
2.463807823E1,-9.131562710E-2,-1.229759008E-1,-1.012290940E-1
2.465793136E1,-9.510298818E-2,-6.352300048E-1,-2.497217059E-1
2.467778292E1,-1.134114936E-1,-8.319810033E-1,-2.742435932E-1
2.469763604E1,-1.286656708E-1,-9.882054329E-1,-2.833367586E-1
2.471748917E1,-1.353502870E-1,-1.076833248E0,-2.709449232E-1
2.473734229E1,-1.402895600E-1,-1.140939236E0,-2.489886731E-1
2.475719386E1,-1.493827254E-1,-1.236548305E0,-2.318495363E-1
2.477704698E1,-1.730319411E-1,-1.388496637E0,-2.284985036E-1
2.479690011E1,-2.142915279E-1,-1.604009986E0,-2.413615882E-1
2.481675167E1,-2.576280534E-1,-1.863348365E0,-2.641555667E-1
2.483660479E1,-2.835461795E-1,-2.115548372E0,-2.866703272E-1
2.485645792E1,-2.889392674E-1,-2.316505671E0,-2.971946597E-1
2.487630948E1,-2.676462531E-1,-2.434839010E0,-2.937040031E-1
2.489616261E1,-2.382025421E-1,-2.518737078E0,-2.838254273E-1
2.491602042E1,-3.344050795E-2,-2.045299053E0,-1.795943826E-1
2.493586729E1,2.399304062E-1,-1.437261224E0,-7.499679923E-2
2.495572042E1,3.638138771E-1,-1.229375005E0,-2.761110850E-2
2.497557354E1,3.803770542E-1,-1.272170544E0,-1.052433532E-2
2.499542667E1,4.326845706E-1,-1.257073402E0,3.124139272E-3
2.501527823E1,4.915021658E-1,-1.213440180E0,1.644100063E-2
2.503513136E1,4.728446007E-1,-1.341163397E0,3.014183603E-2
2.505498448E1,3.325201273E-1,-1.731785536E0,4.310963303E-2
2.507483604E1,1.752659678E-1,-2.223060846E0,1.647590846E-2
2.509468917E1,8.948303014E-2,-2.501353502E0,-6.754423957E-3
2.511454229E1,4.586725309E-2,-2.609843254E0,-2.546435408E-2
2.513439386E1,-7.470009383E-3,-2.731317997E0,-5.564109609E-2
2.515424698E1,-7.086037099E-2,-2.875726700E0,-1.213178337E-1
2.517410011E1,-5.565854907E-2,-2.721317291E0,-1.609891653E-1
2.519395323E1,-3.309144080E-2,-2.502889395E0,-1.550899595E-1
2.521380479E1,-1.862266287E-2,-2.266397238E0,-1.400801241E-1
2.523365792E1,-1.818633080E-2,-2.058912516E0,-1.124864668E-1
2.525350948E1,-1.773254573E-2,-1.855337381E0,-9.054768085E-2
2.527336261E1,-3.553490341E-2,-1.690630674E0,-3.078760765E-2
2.529321573E1,-7.757988572E-2,-1.594724774E0,5.928883329E-2
2.531306886E1,-1.037947312E-1,-1.487404466E0,1.239183769E-1
2.533292042E1,-1.115614474E-1,-1.360379457E0,1.931032240E-1
2.535277354E1,-1.049990058E-1,-1.180715203E0,2.303136438E-1
2.537262667E1,-8.758062124E-2,-9.242914915E-1,2.292140871E-1
2.539247823E1,-5.866051465E-2,-5.783672333E-1,1.991769671E-1
2.541233136E1,-1.762782596E-2,-1.489813030E-1,1.650034338E-1
2.543218292E1,2.586578019E-2,2.967408895E-1,1.398532391E-1
2.545203604E1,6.633996218E-2,7.124084830E-1,1.203753576E-1
2.547188917E1,1.033933014E-1,1.092541218E0,1.041787043E-1
2.549174229E1,1.339191198E-1,1.417050242E0,8.880235255E-2
2.551159386E1,1.335351467E-1,1.573885560E0,8.054694533E-2
2.553144698E1,-5.740387738E-2,1.126994014E0,1.209338605E-1
2.555130011E1,-2.819230258E-1,4.782202244E-1,1.227664575E-1
2.557115167E1,-3.950378299E-1,1.938013583E-1,1.027649865E-1
2.559100479E1,-4.585677981E-1,6.970845163E-2,9.033824503E-2
2.561085792E1,-5.319414735E-1,-7.623597980E-2,7.503170520E-2
2.563070948E1,-5.765171647E-1,-1.258207858E-1,6.120869517E-2
2.565056261E1,-5.349434018E-1,2.109579444E-1,7.513642311E-2
2.567041573E1,-4.709596336E-1,6.362946630E-1,7.330382615E-2
2.569026729E1,-2.960427403E-1,1.617832899E0,1.356469840E-1
2.571012042E1,-8.555603772E-2,2.718123436E0,2.143613398E-1
2.572997354E1,4.644321278E-2,3.412939072E0,2.712765336E-1
2.574982667E1,1.202531829E-1,3.751969099E0,3.003188074E-1
2.576967823E1,1.755277663E-1,3.959610939E0,3.262020350E-1
2.578953136E1,2.030341476E-1,3.984813452E0,3.425033987E-1
2.580938448E1,2.248333097E-1,3.969053268E0,3.593283892E-1
2.582923604E1,1.766971350E-1,3.958755732E0,4.096985757E-1
2.584908917E1,1.470614374E-1,3.785165310E0,4.019493163E-1
2.586894229E1,1.095892265E-1,3.472978354E0,3.586651683E-1
2.588879542E1,9.285151958E-2,3.236451387E0,3.248406649E-1
2.590865323E1,1.053131670E-1,3.079214573E0,3.039141893E-1
2.592850011E1,4.696680978E-2,2.393352509E0,1.691573113E-1
2.594835323E1,-5.291838199E-2,1.351914525E0,-4.256857932E-2
2.596820479E1,-1.551423222E-1,2.090031803E-1,-2.761110961E-1
2.598805792E1,-2.108008713E-1,-6.212848425E-1,-4.398753345E-1
2.600791104E1,-2.323905826E-1,-1.085210800E0,-5.063549280E-1
2.602776261E1,-2.548180819E-1,-1.486357331E0,-5.323079824E-1
2.604761573E1,-2.936865389E-1,-2.285857677E0,-6.191904545E-1
2.606746886E1,-3.120648563E-1,-3.238161802E0,-7.424805164E-1
2.608732042E1,-2.857278585E-1,-3.825517416E0,-8.226958513E-1
2.610717354E1,-2.356892675E-1,-4.133288860E0,-8.741307259E-1
2.612702667E1,-1.787217110E-1,-4.217011929E0,-8.937830925E-1
2.614687979E1,-1.078613475E-1,-4.019929409E0,-8.657880425E-1
2.616673136E1,-5.394812673E-2,-3.871367216E0,-8.313352466E-1
2.618658448E1,3.532546386E-2,-3.232943058E0,-7.102268338E-1
2.620643761E1,1.501157731E-1,-2.213374138E0,-5.426228642E-1
2.622628917E1,2.552369535E-1,-1.217018127E0,-3.940080702E-1
2.624614229E1,3.304257393E-1,-6.085963249E-1,-2.972295582E-1
2.626599542E1,3.718773127E-1,-3.414213061E-1,-2.416931987E-1
2.628584854E1,3.794520199E-1,-4.876798987E-1,-2.255488932E-1
2.630570011E1,3.724532723E-1,-6.422462463E-1,-2.007303238E-1
2.632555323E1,3.610562682E-1,-8.452280760E-1,-1.856506765E-1
2.634540479E1,3.501304984E-1,-1.140991569E0,-1.900314540E-1
2.636525792E1,3.516663909E-1,-1.187522054E0,-1.885653734E-1
2.638511104E1,3.646341860E-1,-1.275451660E0,-2.646966279E-1
2.640496886E1,3.630633950E-1,-1.244873524E0,-2.570520937E-1
2.642481573E1,3.596425354E-1,-1.241348028E0,-2.576280534E-1
2.644466886E1,3.587000668E-1,-1.310358286E0,-2.911209166E-1
2.646452198E1,3.539353311E-1,-1.426178336E0,-3.451214135E-1
2.648437354E1,3.384018838E-1,-1.594829559E0,-3.824016452E-1
2.650422667E1,3.086440265E-1,-1.872162342E0,-3.895225823E-1
2.652407823E1,2.775596976E-1,-2.065474987E0,-3.942175210E-1
2.654393136E1,2.494075447E-1,-2.144259214E0,-4.075692892E-1
2.656378448E1,2.092824280E-1,-2.231979370E0,-4.270995259E-1
2.658363761E1,1.818109453E-1,-2.186042309E0,-4.302411079E-1
2.660348917E1,1.686686128E-1,-2.056172371E0,-4.047418535E-1
2.662334229E1,1.712342501E-1,-1.819017053E0,-3.585255444E-1
2.664319386E1,1.901885271E-1,-1.459636331E0,-3.138800263E-1
2.666304698E1,2.208888680E-1,-8.832064271E-1,-2.928836942E-1
2.668290011E1,2.273291349E-1,-5.394638181E-1,-2.761634588E-1
2.670275323E1,2.236290425E-1,-5.269498229E-1,-2.493900955E-1
2.672260479E1,2.124589235E-1,-3.278600872E-1,-2.277829200E-1
2.674245792E1,1.731541157E-1,1.724036187E-1,-2.154608965E-1
2.676231104E1,8.248426020E-2,1.066815019E0,-2.262121290E-1
2.678216261E1,-4.049163684E-2,1.763585448E0,-2.350260317E-1
2.680201573E1,-1.916546077E-1,2.477285385E0,-2.375044078E-1
2.682186886E1,-4.514643252E-1,4.016002655E0,-2.761634588E-1
2.684172198E1,-8.259072304E-1,6.281073570E0,-3.490134776E-1
2.686157354E1,-1.171796560E0,8.234620094E0,-4.164704680E-1
2.688142667E1,-1.263356566E0,8.166291237E0,-4.491779208E-1
2.690127979E1,-1.003075600E0,5.850273609E0,-4.945739508E-1
2.692113136E1,-3.419798017E-1,1.970214963E0,-5.542467833E-1
2.694098448E1,-1.122770309E-1,7.607366443E-1,-5.949827433E-1
2.696083761E1,-2.098409384E-1,1.132840872E0,-6.278996468E-1
2.698068917E1,-1.142841578E-1,7.497585416E-1,-6.775367856E-1
2.700054229E1,4.071504176E-1,-1.004436970E0,-7.884001136E-1
2.702039542E1,6.407627463E-1,-1.497370362E0,-9.041154385E-1
2.704024854E1,7.702312469E-1,-1.609036446E0,-9.946107864E-1
2.706010011E1,8.441982865E-1,-1.536343575E0,-1.078299284E0
2.707995323E1,8.781100512E-1,-1.354253292E0,-1.175723553E0
2.709980636E1,8.654040694E-1,-1.096642733E0,-1.265852451E0
2.711965792E1,8.003382087E-1,-7.693411112E-1,-1.323552966E0
2.713951104E1,6.722659469E-1,-3.687182665E-1,-1.346975327E0
2.715936417E1,4.950975478E-1,1.554739326E-1,-1.397240758E0
2.717921573E1,2.742784917E-1,8.443554044E-1,-1.514718890E0
2.719906886E1,1.002517119E-1,1.344043136E0,-1.596836686E0
2.721892198E1,4.403465614E-2,1.545681000E0,-1.660314202E0
2.723877511E1,6.005677953E-2,1.523305893E0,-1.671519279E0
2.725862667E1,1.137780100E-1,1.376628399E0,-1.631149769E0
2.727847979E1,1.917069703E-1,1.179755330E0,-1.563169241E0
2.729833292E1,3.235491216E-1,9.311331511E-1,-1.473965406E0
2.731818448E1,4.959178567E-1,6.615844965E-1,-1.373312354E0
2.733803761E1,7.064918280E-1,3.977081776E-1,-1.268802047E0
2.735789073E1,9.765815139E-1,1.344078034E-1,-1.161830783E0
2.737774386E1,1.339959025E0,-1.639736891E-1,-1.041891694E0
2.739760011E1,1.747702837E0,-4.631231129E-1,-9.002583027E-1
2.741744854E1,1.827743649E0,-3.397806883E-1,-9.128595591E-1
2.743730011E1,1.762573123E0,-1.144586951E-1,-9.310458899E-1
2.745715323E1,1.989692807E0,-2.267008126E-1,-7.425154448E-1
2.747700636E1,2.457598209E0,-5.465847850E-1,-3.660828173E-1
2.749685948E1,2.727077007E0,-6.328738332E-1,-1.530479193E-1
2.751671104E1,2.712730408E0,-4.482529163E-1,-1.786170006E-1
2.753656417E1,2.791392326E0,-3.839549720E-1,-4.782202095E-2
2.755641729E1,3.153949499E0,-5.239303708E-1,3.610213399E-1
2.757626886E1,3.356983662E0,-5.175599456E-1,6.466619372E-1
2.759612198E1,3.502439499E0,-4.514817595E-1,8.784242272E-1
2.761597511E1,4.171144962E0,-6.870663166E-1,1.645740747E0
2.763582823E1,5.122436523E0,-1.014263153E0,2.867104769E0
2.765567979E1,6.753132820E0,-1.747371316E0,5.192354679E0
2.767553292E1,7.378675938E0,-2.041232347E0,6.635288239E0
2.769538604E1,7.210653305E0,-1.898516774E0,7.070486069E0
2.771523761E1,6.838200092E0,-1.619770288E0,7.183495998E0
2.773509073E1,6.402827740E0,-1.275085211E0,7.105916023E0
2.775494229E1,5.871182919E0,-8.665210605E-1,6.671538353E0
2.777479542E1,5.256984234E0,-4.484449029E-1,5.860274792E0
2.779464854E1,4.646118641E0,-9.306095541E-2,4.899139404E0
2.781450167E1,4.181058407E0,1.785297245E-1,4.144476414E0
2.783435479E1,3.809826851E0,4.325274825E-1,3.395921946E0
2.785421104E1,3.371714354E0,6.095911264E-1,2.271319151E0
2.787405948E1,2.830644846E0,6.429618597E-1,8.066039085E-1
2.789391729E1,2.293030977E0,5.492376685E-1,-6.629458666E-1
2.791376417E1,1.704523444E0,2.889741659E-1,-2.370052338E0
2.793361729E1,1.173541903E0,-8.995427191E-2,-3.830369473E0
2.795347042E1,9.043423533E-1,-3.501653969E-1,-4.356585979E0
2.797332198E1,7.915591598E-1,-4.922526479E-1,-4.365906239E0
2.799317511E1,7.371048927E-1,-5.629733801E-1,-4.193415165E0
2.801302667E1,7.028615475E-1,-5.907765031E-1,-3.948580503E0
2.803287979E1,6.708521843E-1,-6.088406444E-1,-3.723537683E0
2.805273292E1,6.417575479E-1,-6.247755289E-1,-3.534553528E0
2.807258448E1,6.182130575E-1,-6.378130913E-1,-3.373023272E0
2.809243761E1,5.926439762E-1,-6.352126002E-1,-3.214721918E0
2.811229073E1,5.635493398E-1,-6.284058094E-1,-3.063995361E0
2.813214229E1,5.387308002E-1,-5.951398015E-1,-2.871642590E0
2.815199542E1,5.103691816E-1,-5.476319790E-1,-2.659166098E0
2.817184854E1,4.792324901E-1,-4.916941524E-1,-2.438434362E0
2.819170167E1,4.485496283E-1,-4.479562044E-1,-2.237075806E0
2.821155323E1,4.174478352E-1,-4.370827973E-1,-2.088618040E0
2.823140636E1,3.947934806E-1,-4.359134436E-1,-1.955868363E0
2.825125948E1,3.783001006E-1,-4.444480836E-1,-1.833782554E0
2.827111104E1,3.718598485E-1,-4.779933095E-1,-1.747720361E0
2.829096417E1,3.649483323E-1,-4.871388376E-1,-1.636036754E0
2.831081729E1,3.536386192E-1,-4.570842683E-1,-1.484489799E0
