"Time (s)","Gyroscope x (rad/s)","Gyroscope y (rad/s)","Gyroscope z (rad/s)"
1.190731700E-2,-4.612905160E-2,2.830924094E-1,4.818505049E-1
3.175575500E-2,0.000000000E0,0.000000000E0,0.000000000E0
5.160731700E-2,1.021017600E-2,-1.167276204E-1,-1.358564347E-1
7.146044200E-2,1.361356815E-3,-1.421919763E-1,-1.647939831E-1
9.131200500E-2,-1.089085452E-2,-1.669407487E-1,-1.933475733E-1
1.111651300E-1,-5.682268143E-1,-4.339813709E0,-4.953261852E0
1.310182550E-1,-6.235188842E-1,-3.628958464E0,-4.110878468E0
1.508698170E-1,-6.702238917E-1,-3.484951258E0,-3.959872723E0
1.707229420E-1,-6.331880093E-1,-3.334276915E0,-3.866410494E0
1.905760670E-1,-5.954016447E-1,-3.167440891E0,-3.765722275E0
2.104276300E-1,-5.724156499E-1,-2.928522825E0,-3.578605652E0
2.302870050E-1,-5.477715731E-1,-2.724476337E0,-3.452749968E0
2.501338800E-1,-5.121493936E-1,-2.575006485E0,-3.382762194E0
2.699870050E-1,-4.687256217E-1,-2.318216085E0,-3.215402603E0
2.898385670E-1,-4.106759727E-1,-2.001979828E0,-3.018267632E0
3.096932550E-1,-4.094018936E-1,-1.710090995E0,-2.750691175E0
3.295448170E-1,-4.137651920E-1,-1.535784960E0,-2.579003096E0
3.493963800E-1,-4.320388138E-1,-1.313011169E0,-2.335058451E0
3.692495050E-1,-4.572413564E-1,-1.092663407E0,-2.101673126E0
3.891026300E-1,-4.848873615E-1,-8.810945749E-1,-1.877206326E0
4.089557550E-1,-5.031784177E-1,-7.184647918E-1,-1.713284969E0
4.288073170E-1,-5.179962516E-1,-5.929930806E-1,-1.578091741E0
4.486604420E-1,-5.327792168E-1,-4.850444496E-1,-1.448850155E0
4.685135670E-1,-5.413487554E-1,-3.691895008E-1,-1.321650624E0
4.883651300E-1,-5.574930906E-1,-2.391799241E-1,-1.175095320E0
5.082182550E-1,-5.886122584E-1,-1.035678387E-1,-1.000981212E0
5.280713800E-1,-6.231697798E-1,2.178170905E-2,-8.266577721E-1
5.479245050E-1,-6.639407277E-1,1.127133593E-1,-6.691417694E-1
5.677760670E-1,-7.053573728E-1,1.717578471E-1,-5.337391496E-1
5.876307550E-1,-7.578219771E-1,2.308023423E-1,-3.953519762E-1
6.074823170E-1,-8.132885098E-1,2.836858034E-1,-2.728298604E-1
6.273338800E-1,-8.493469954E-1,2.922204733E-1,-2.098758370E-1
6.471870050E-1,-8.762425184E-1,2.683443725E-1,-1.787915230E-1
6.670401300E-1,-9.705078006E-1,2.400351316E-1,-1.423141509E-1
6.868932550E-1,-1.156699538E0,2.515194118E-1,-3.577925032E-3
7.067448170E-1,-1.378932238E0,3.181909621E-1,1.772730947E-1
7.265995050E-1,-1.534772754E0,3.682644665E-1,2.574884295E-1
7.464510670E-1,-1.647625685E0,4.503822029E-1,3.023433983E-1
7.663041920E-1,-1.713826060E0,5.529552102E-1,3.340385556E-1
7.861557550E-1,-1.770025611E0,6.776241064E-1,3.909537494E-1
8.060088800E-1,-1.792767286E0,7.397752404E-1,3.695036471E-1
8.258604420E-1,-1.747388721E0,7.669500113E-1,2.485523373E-1
8.457135670E-1,-1.711574554E0,8.011060953E-1,1.317723542E-1
8.655666920E-1,-1.698973298E0,8.690692186E-1,7.794640213E-2
8.854182550E-1,-1.696355343E0,9.302779436E-1,3.143338114E-2
9.052713800E-1,-1.652634859E0,9.428268671E-1,-6.653194875E-2
9.251245050E-1,-1.506393671E0,9.507157207E-1,-2.668783069E-1
9.449760670E-1,-1.368948936E0,9.771051407E-1,-4.506963789E-1
9.648291920E-1,-1.349837661E0,1.061282396E0,-4.175001979E-1
9.846823170E-1,-1.455971122E0,1.146524191E0,-2.113419175E-1
1.004535442E0,-1.469427586E0,1.208972096E0,-1.436755061E-1
1.024387005E0,-1.384325385E0,1.284981251E0,-2.007128596E-1
1.044240130E0,-1.111024261E0,1.370781541E0,-5.107706189E-1
1.064091692E0,-8.361872435E-1,1.466722369E0,-7.976503968E-1
1.083946380E0,-5.749463439E-1,1.571442127E0,-1.051019788E0
1.103797942E0,-3.214372993E-1,1.660628438E0,-1.292730451E0
1.123651067E0,-8.721410483E-2,1.713058114E0,-1.508575320E0
1.143502630E0,9.450957924E-2,1.743077755E0,-1.649877191E0
1.163355755E0,2.606125772E-1,1.771369576E0,-1.755801201E0
1.183208880E0,4.151090980E-1,1.812437177E0,-1.824776649E0
1.203068255E0,5.338787436E-1,1.871062756E0,-1.844097376E0
1.222915130E0,6.211626530E-1,2.082352400E0,-1.788718104E0
1.242766692E0,5.241572857E-1,2.170229673E0,-1.635024428E0
1.262619817E0,5.131267905E-1,2.270987511E0,-1.546763182E0
1.282471380E0,7.446796298E-1,2.468558788E0,-1.600274920E0
1.302324505E0,9.382715225E-1,2.602687359E0,-1.627571940E0
1.322177630E0,1.067827344E0,2.571707726E0,-1.617326856E0
1.342029192E0,1.126854420E0,2.527847528E0,-1.558229923E0
1.361880755E0,1.221363902E0,2.506572008E0,-1.496776938E0
1.381733880E0,1.377012372E0,2.541077137E0,-1.440873981E0
1.401588567E0,1.717543602E0,2.768738031E0,-1.431606293E0
1.421440130E0,1.390189648E0,2.668119669E0,-1.248207092E0
1.441291692E0,1.073831320E0,2.484633207E0,-1.067024469E0
1.461146380E0,7.187265754E-1,2.289295912E0,-8.936609626E-1
1.480997942E0,3.913202584E-1,2.139581680E0,-7.425852418E-1
1.500849505E0,1.006705910E-1,1.938240528E0,-6.086835861E-1
1.520704192E0,-1.778839529E-1,1.733251572E0,-5.013109446E-1
1.540555755E0,-3.771307468E-1,1.556083202E0,-4.154930711E-1
1.560408880E0,-4.751484394E-1,1.374656200E0,-3.510380685E-1
1.580262005E0,-5.565680265E-1,1.208221674E0,-3.048042953E-1
1.600115130E0,-6.750235558E-1,1.001539707E0,-2.744355798E-1
1.619966692E0,-8.094662428E-1,7.282735109E-1,-2.640159428E-1
1.639818255E0,-1.096520543E0,3.171088696E-1,-2.965663373E-1
1.659672942E0,-1.494577765E0,-2.405063659E-1,-4.083023369E-1
1.679524505E0,-1.580744743E0,-4.037993848E-1,-4.723908007E-1
1.699377630E0,-1.561266780E0,-4.398753345E-1,-5.143485069E-1
1.719229192E0,-1.701451659E0,-5.526061654E-1,-5.835682750E-1
1.739083880E0,-1.883332372E0,-6.252642274E-1,-6.434679627E-1
1.758935442E0,-1.873558640E0,-5.404412150E-1,-6.468539238E-1
1.778787005E0,-1.674137235E0,-3.670951128E-1,-6.272364259E-1
1.798640130E0,-1.479271293E0,-2.291791886E-1,-6.208660007E-1
1.818493255E0,-1.372334957E0,-1.423839629E-1,-6.170960665E-1
1.838346380E0,-1.219042659E0,3.508111695E-3,-5.806536078E-1
1.858197942E0,-9.627410769E-1,1.931905001E-1,-5.336693525E-1
1.878051067E0,-6.931051612E-1,3.316998184E-1,-5.050110221E-1
1.897904192E0,-5.024453998E-1,3.827506900E-1,-4.871563017E-1
1.917755755E0,-4.234866798E-1,3.114539981E-1,-4.904898703E-1
1.937608880E0,-4.173780382E-1,5.178391933E-2,-5.715080500E-1
1.957462005E0,-4.321086109E-1,-1.003040746E-1,-6.243915558E-1
1.977313567E0,-2.816612422E-1,-6.026621908E-2,-6.401518583E-1
1.997166692E0,-4.752531648E-2,1.430820972E-1,-6.127153039E-1
2.017019817E0,2.412743121E-1,4.151614606E-1,-5.822069049E-1
2.036871380E0,4.569097459E-1,6.066939235E-1,-5.793445706E-1
2.056724505E0,6.415132284E-1,8.005999923E-1,-5.744053125E-1
2.076577630E0,8.545132279E-1,1.059781313E0,-5.513495207E-1
2.096430755E0,1.067129254E0,1.328247905E0,-5.147848725E-1
2.116282317E0,1.261070251E0,1.588319421E0,-4.788485467E-1
2.136135442E0,1.415287495E0,1.796886325E0,-4.586027265E-1
2.155988567E0,1.607203841E0,2.065021276E0,-4.412716031E-1
2.175840130E0,1.875391126E0,2.427787781E0,-4.291939139E-1
2.195693255E0,2.289662600E0,3.002350330E0,-4.236961305E-1
2.215546380E0,2.555179358E0,3.322548389E0,-4.458618164E-1
2.235399505E0,2.749940872E0,3.463623285E0,-4.740139842E-1
2.255251067E0,3.021810770E0,3.758950472E0,-5.064421892E-1
2.275104192E0,3.272125721E0,4.063126564E0,-5.305277109E-1
2.294957317E0,3.437844753E0,4.244256973E0,-5.237907767E-1
2.314808880E0,3.436623096E0,4.116010189E0,-4.617268443E-1
2.334662005E0,3.193568468E0,3.457322598E0,-3.087312877E-1
2.354515130E0,2.933008432E0,2.906479359E0,-2.141693532E-1
2.374366692E0,2.760971308E0,2.708000422E0,-2.195100635E-1
2.394219817E0,2.569962502E0,2.516398191E0,-2.469989955E-1
2.414072942E0,2.400630474E0,2.356770515E0,-2.875953615E-1
2.433924505E0,2.262697220E0,2.266501904E0,-3.399552405E-1
2.453777630E0,2.098147631E0,2.155534029E0,-3.803421557E-1
2.473630755E0,1.893106222E0,2.001997471E0,-4.276754856E-1
2.493482317E0,1.728259921E0,2.056294441E0,-5.178915262E-1
2.513335442E0,1.728259921E0,2.056294441E0,-5.178915262E-1
2.533188567E0,1.728259921E0,2.056294441E0,-5.178915262E-1
2.553041692E0,1.728259921E0,2.056294441E0,-5.178915262E-1
2.572894817E0,1.728259921E0,2.056294441E0,-5.178915262E-1
2.592746380E0,-2.343628109E-1,-5.718745589E-1,-4.773475602E-2
2.612599505E0,-2.307883739E0,-3.616077900E0,5.025675297E-1
2.632452630E0,-3.057659864E0,-4.800179005E0,6.745697260E-1
2.652304192E0,-3.136915207E0,-4.980820656E0,6.979222298E-1
2.672157317E0,-3.044814110E0,-4.834212780E0,6.648308039E-1
2.692010442E0,-2.958612442E0,-4.599152088E0,5.813342929E-1
2.711862005E0,-2.886896849E0,-4.397269726E0,4.537506998E-1
2.731721380E0,-2.861851215E0,-4.300770283E0,2.436828762E-1
2.751568255E0,-2.700932026E0,-4.058239460E0,9.684831649E-2
2.771419817E0,-2.468488932E0,-3.742771387E0,-3.804817796E-3
2.791272942E0,-2.239082813E0,-3.446693659E0,-1.014734432E-1
2.811126067E0,-2.018822432E0,-3.124819994E0,-1.571494490E-1
2.830979192E0,-1.812629104E0,-2.838393927E0,-2.248158604E-1
2.850830755E0,-1.623854280E0,-2.613613129E0,-3.339338303E-1
2.870683880E0,-1.431152582E0,-2.393963337E0,-4.259476066E-1
2.890537005E0,-1.259481907E0,-2.163702011E0,-4.751833379E-1
2.910388567E0,-1.133905530E0,-2.004719973E0,-5.888042450E-1
2.930241692E0,-1.109278917E0,-1.866455078E0,-7.186393142E-1
2.950094817E0,-1.150939941E0,-1.738662124E0,-8.381071091E-1
2.969946380E0,-1.157554746E0,-1.624918938E0,-9.386206269E-1
2.989799505E0,-1.099470139E0,-1.511507511E0,-1.004978061E0
3.009652630E0,-1.033723593E0,-1.419249415E0,-1.097096562E0
3.029505755E0,-1.000143528E0,-1.350867391E0,-1.227332950E0
3.049357317E0,-9.809099436E-1,-1.276289463E0,-1.301230192E0
3.069210442E0,-9.582555890E-1,-1.208797574E0,-1.360553980E0
3.089063567E0,-8.588765264E-1,-1.104514122E0,-1.295680046E0
3.108915130E0,-7.611380816E-1,-1.013565063E0,-1.248207092E0
3.128766692E0,-6.753900647E-1,-9.198408723E-1,-1.172843814E0
3.148621380E0,-6.045646071E-1,-8.317890167E-1,-1.085245728E0
3.168472942E0,-4.869992137E-1,-7.463377118E-1,-9.971589446E-1
3.188326067E0,-2.941752374E-1,-6.529102325E-1,-9.188460112E-1
3.208177630E0,-1.371654272E-1,-5.801474452E-1,-8.550367951E-1
3.228030755E0,-1.214749143E-1,-5.254837275E-1,-7.728317976E-1
3.247883880E0,-1.086467430E-1,-4.762130976E-1,-6.918135881E-1
3.267737005E0,-9.475392103E-2,-4.299443960E-1,-6.187017560E-1
3.287588567E0,-8.112290502E-2,-3.901683390E-1,-5.563411713E-1
3.307441692E0,-6.522295624E-2,-3.672347367E-1,-5.040336251E-1
3.327293255E0,-4.663519561E-2,-3.623129129E-1,-4.653745890E-1
3.347146380E0,-1.633628085E-2,-3.667285740E-1,-4.452160299E-1
3.366999505E0,3.255039081E-2,-3.654021323E-1,-4.284259677E-1
3.386852630E0,9.402088821E-2,-3.471634388E-1,-3.994360566E-1
3.406704192E0,1.901885271E-1,-3.141941726E-1,-3.530277610E-1
3.426557317E0,3.804643154E-1,-2.571393549E-1,-3.047519326E-1
3.446410442E0,6.278123856E-1,-1.983043104E-1,-2.994112372E-1
3.466262005E0,7.172256112E-1,-1.808510125E-1,-2.971248627E-1
3.486115130E0,7.076786757E-1,-1.837657094E-1,-2.643475533E-1
3.505968255E0,7.278721333E-1,-1.843940318E-1,-2.318844497E-1
3.525819817E0,6.941348910E-1,-1.978156120E-1,-2.063328177E-1
3.545672942E0,6.135879755E-1,-2.220233381E-1,-1.944994926E-1
3.565526067E0,5.036321878E-1,-2.675589621E-1,-2.444508076E-1
3.585379192E0,4.296477139E-1,-3.115936220E-1,-2.888170779E-1
3.605230755E0,3.462209702E-1,-3.885801136E-1,-4.453207552E-1
3.625083880E0,2.812947035E-1,-4.694761038E-1,-6.058561206E-1
3.644937005E0,1.872214675E-1,-5.175948143E-1,-6.344271898E-1
3.664788567E0,1.522625238E-1,-5.138249397E-1,-5.665862560E-1
3.684641692E0,9.796532989E-2,-5.039463639E-1,-4.796688259E-1
3.704494817E0,6.918485463E-2,-4.766319692E-1,-4.000294507E-1
3.724346380E0,4.918337986E-2,-4.175700247E-1,-2.521302700E-1
3.744199505E0,4.612905160E-2,-3.618765771E-1,-1.713215262E-1
3.764052630E0,4.632103816E-2,-3.027797043E-1,-9.246754646E-2
3.783904192E0,4.497713596E-2,-2.468768209E-1,-3.017674200E-2
3.803757317E0,3.888593614E-2,-2.024581879E-1,-2.809980186E-3
3.823610442E0,3.691371530E-2,-1.626297832E-1,1.104793418E-2
3.843463567E0,4.192280769E-2,-1.258905977E-1,1.588249579E-2
3.863315130E0,4.886921868E-2,-8.721410483E-2,3.609341010E-2
3.883168255E0,5.635667965E-2,-4.532619938E-2,7.202973962E-2
3.903021380E0,6.183701381E-2,-3.490658419E-4,1.121897623E-1
3.922874505E0,5.766567960E-2,4.794419557E-2,1.575857848E-1
3.942726067E0,4.159119725E-2,9.927432984E-2,2.064026296E-1
3.962579192E0,2.593559213E-2,1.532399058E-1,2.453060299E-1
3.982432317E0,1.041961554E-2,2.010095716E-1,2.669306695E-1
4.002283880E0,-1.288053021E-2,2.378534675E-1,2.724458873E-1
4.022137005E0,-6.696828455E-2,2.497217059E-1,2.556732893E-1
4.041990130E0,-1.504648328E-1,2.353401929E-1,2.140122652E-1
4.061841692E0,-2.712590694E-1,1.946914792E-1,1.690351367E-1
4.081694817E0,-4.496666193E-1,1.238834709E-1,1.329068244E-1
4.101546380E0,-5.322555900E-1,8.925613761E-2,1.047372073E-1
4.121399505E0,-5.353797674E-1,9.131562710E-2,9.073966742E-2
4.141252630E0,-5.702340007E-1,8.019787818E-2,8.543386310E-2
4.161105755E0,-5.735151768E-1,8.159413934E-2,7.983136177E-2
4.180957317E0,-5.480333567E-1,1.202357337E-1,1.398183256E-1
4.200810442E0,-5.054299235E-1,1.611287892E-1,1.886177361E-1
4.220663567E0,-4.608541727E-1,1.989500821E-1,2.260724902E-1
4.240515130E0,-4.059112370E-1,2.613455951E-1,3.022212088E-1
4.260368255E0,-3.324677646E-1,3.243868947E-1,3.530277610E-1
4.280221380E0,-2.272418737E-1,3.713013530E-1,3.420147300E-1
4.300072942E0,-1.831024885E-1,3.784222901E-1,3.235665858E-1
4.319926067E0,-9.159488231E-2,3.917042315E-1,3.008075058E-1
4.339777630E0,-1.251401100E-2,3.864333630E-1,2.702816725E-1
4.359632317E0,2.598795295E-2,3.601835966E-1,2.367713600E-1
4.379483880E0,2.132792398E-2,3.209311366E-1,2.077639997E-1
4.399337005E0,-2.391101094E-3,2.746799290E-1,1.659808159E-1
4.419188567E0,-2.815216035E-2,2.264215648E-1,1.273915768E-1
4.439043255E0,-4.276056588E-2,1.735206395E-1,9.714502841E-2
4.458894817E0,-4.984660447E-2,1.184904054E-1,7.328637689E-2
4.478747942E0,-5.188863724E-2,6.569419056E-2,4.857251421E-2
4.498599505E0,-4.588470608E-2,1.692969352E-2,5.515240598E-3
4.518452630E0,-4.415682983E-3,-2.303834632E-2,-6.843435764E-2
4.538305755E0,1.265538186E-1,-3.251548484E-2,-1.696634591E-1
4.558157317E0,3.050137460E-1,-1.193805225E-2,-2.502104044E-1
4.578010442E0,4.204148948E-1,2.897246508E-3,-2.876826227E-1
4.597862005E0,4.717101455E-1,1.623156248E-3,-3.119950593E-1
4.617715130E0,5.200033784E-1,1.675516134E-3,-3.439520299E-1
4.637568255E0,6.441137791E-1,1.768018492E-2,-4.127878249E-1
4.657421380E0,6.366263032E-1,1.199041214E-2,-4.121595025E-1
4.677272942E0,6.053325534E-1,-1.139700040E-2,-4.101000130E-1
4.697126067E0,5.425181389E-1,-7.812093943E-2,-4.686557949E-1
4.716979192E0,4.672071934E-1,-1.004611477E-1,-3.999945521E-1
4.736830755E0,4.025602043E-1,-1.257509738E-1,-3.492054641E-1
4.756683880E0,2.307848930E-1,-2.313957512E-1,-3.496592641E-1
4.776537005E0,1.571843475E-1,-3.443709016E-1,-4.375016689E-1
4.796390130E0,1.370432526E-1,-4.155105352E-1,-5.005778670E-1
4.816241692E0,1.327672005E-1,-4.250923991E-1,-4.638910592E-1
4.836094817E0,1.402546614E-1,-4.254763722E-1,-4.172558486E-1
4.855947942E0,1.571494490E-1,-4.136255682E-1,-3.746698201E-1
4.875801067E0,2.495995313E-1,-2.690250576E-1,-1.823520064E-1
4.895652630E0,3.197094202E-1,-1.383522451E-1,-2.268928103E-2
4.915505755E0,3.060260415E-1,-1.277930140E-1,4.136430100E-3
4.935358880E0,2.905624211E-1,-1.261000335E-1,7.941247895E-3
4.955215130E0,2.744181156E-1,-1.362927556E-1,4.729842301E-3
4.975063567E0,2.556732893E-1,-1.498539746E-1,-1.103048120E-2
4.994916692E0,2.417979091E-1,-1.644798219E-1,-2.583087236E-2
5.014768255E0,2.308896035E-1,-1.590867639E-1,-2.492330223E-2
5.034621380E0,2.261772156E-1,-1.609542668E-1,-2.930407785E-2
5.054474505E0,2.225120217E-1,-1.567305624E-1,-3.837978840E-2
5.074326067E0,2.161415666E-1,-1.454731971E-1,-4.429645464E-2
5.094179192E0,1.978505254E-1,-1.347045153E-1,-3.487167880E-2
5.114032317E0,1.331511736E-1,-9.838420898E-2,4.855506122E-2
5.133885442E0,5.838126317E-2,-5.796238407E-2,1.394867152E-1
5.153737005E0,2.242748067E-2,-3.487167880E-2,1.782504767E-1
5.173590130E0,-1.122246683E-2,-3.741985932E-2,1.923527420E-1
5.193441692E0,-7.086037099E-2,-9.550441802E-2,2.091777027E-1
5.213294817E0,-1.773079932E-1,-2.395813465E-1,2.376963943E-1
5.233147942E0,-2.972819209E-1,-4.372049868E-1,3.134262264E-1
5.253001067E0,-3.806912005E-1,-7.181680799E-1,4.129274487E-1
5.272852630E0,-4.419522583E-1,-1.350919724E0,5.324301124E-1
5.292704192E0,-3.132342398E-1,-2.166529655E0,6.072349548E-1
5.312558880E0,-3.176150024E-1,-2.024739027E0,6.063448191E-1
5.332412005E0,-3.618242145E-1,-1.918169260E0,6.950773597E-1
5.352263567E0,-3.313856721E-1,-1.715135098E0,6.141464710E-1
5.372116692E0,-2.926917076E-1,-1.482866645E0,5.256407857E-1
5.391969817E0,-1.967335194E-1,-1.475518823E0,2.958682179E-1
5.411821380E0,-1.595579982E-1,-1.253268600E0,2.217615396E-1
5.431674505E0,-1.423316002E-1,-1.120850444E0,2.001543641E-1
5.451527630E0,-1.199913844E-1,-1.024944544E0,1.810429990E-1
5.471379192E0,-9.744173288E-2,-9.200851917E-1,1.558579057E-1
5.491232317E0,-8.175121993E-2,-8.400793076E-1,1.254891753E-1
5.511085442E0,-5.112069473E-2,-9.524785280E-1,1.075646430E-1
5.530938567E0,1.038470864E-2,-1.328823924E0,1.029220670E-1
5.550790130E0,9.731955826E-2,-1.906091571E0,1.051211804E-1
5.570641692E0,1.876578033E-1,-2.481421947E0,1.088038236E-1
5.590496380E0,2.353925556E-1,-2.844572544E0,1.018748656E-1
5.610347942E0,2.545562685E-1,-3.142220974E0,8.241444826E-2
5.630199505E0,2.631083727E-1,-3.336772919E0,5.660102889E-2
5.650052630E0,2.702293396E-1,-3.421613216E0,2.740166895E-2
5.669907317E0,2.817485034E-1,-3.408977032E0,-5.654866807E-3
5.689758880E0,3.023957312E-1,-3.311605215E0,-4.548327997E-2
5.709610442E0,3.341083825E-1,-3.139725208E0,-8.480554819E-2
5.729463567E0,3.961722851E-1,-2.873492718E0,-1.092750654E-1
5.749316692E0,5.266181827E-1,-2.466918230E0,-1.165530905E-1
5.769169817E0,6.954089999E-1,-2.016902447E0,-9.325294197E-2
5.789021380E0,7.582233548E-1,-1.824619532E0,-6.354743987E-2
5.808874505E0,7.591658831E-1,-1.761770248E0,-3.017674200E-2
5.828726067E0,7.677179575E-1,-1.671222568E0,2.460914198E-3
5.848579192E0,8.142484426E-1,-1.558421969E0,6.574655324E-2
5.868432317E0,8.301483989E-1,-1.490354061E0,1.087863743E-1
5.888283880E0,8.102167249E-1,-1.457821131E0,1.277406514E-1
5.908137005E0,7.658504844E-1,-1.425986409E0,1.279500872E-1
5.927990130E0,7.009591460E-1,-1.385739088E0,6.798057258E-2
5.947841692E0,6.188937426E-1,-1.223685265E0,-2.035926580E-1
5.967694817E0,5.084143877E-1,-1.263199449E0,-3.259402514E-1
5.987547942E0,4.467519224E-1,-1.340395451E0,-2.818008661E-1
6.007401067E0,4.222300649E-1,-1.354724526E0,-2.272244096E-1
6.027252630E0,3.850370944E-1,-1.372736335E0,-1.476723105E-1
6.047105755E0,3.644247353E-1,-1.353625059E0,-5.572836101E-2
6.066958880E0,3.539178669E-1,-1.300235391E0,1.626646891E-2
6.086812005E0,3.472158015E-1,-1.247631192E0,8.576548100E-2
6.106663567E0,3.366042078E-1,-1.213579774E0,1.699776202E-1
6.126516692E0,3.151192069E-1,-1.164832711E0,2.142566144E-1
6.146369817E0,3.033382297E-1,-1.076868176E0,2.102772743E-1
6.166221380E0,2.999697328E-1,-9.751852751E-1,1.868374944E-1
6.186074505E0,2.972470224E-1,-8.778657317E-1,1.669930965E-1
6.205932317E0,3.077364564E-1,-7.879288793E-1,1.607622802E-1
6.225780755E0,3.369183540E-1,-7.119197845E-1,1.705012172E-1
6.245632317E0,3.662922382E-1,-6.600311399E-1,1.914451718E-1
6.265485442E0,3.754028678E-1,-6.405707598E-1,2.182708681E-1
6.285337005E0,3.509159088E-1,-6.980968118E-1,3.003537059E-1
6.305190130E0,3.108431399E-1,-7.332128286E-1,3.492054641E-1
6.325041692E0,2.665466964E-1,-7.169288993E-1,3.528008461E-1
6.344896380E0,2.228087336E-1,-6.840992570E-1,3.507937193E-1
6.364747942E0,1.620363742E-1,-6.783221960E-1,3.652101457E-1
6.384601067E0,5.260422453E-2,-7.258475423E-1,3.920184076E-1
6.404454192E0,-1.433613449E-1,-8.379151225E-1,4.117929935E-1
6.424307317E0,-3.632553816E-1,-9.527403116E-1,4.026474655E-1
6.444158880E0,-4.965985417E-1,-1.013530135E0,3.733957410E-1
6.464012005E0,-4.987801909E-1,-1.002202988E0,3.374419510E-1
6.483865130E0,-5.574756265E-1,-1.012901783E0,2.996206582E-1
6.503716692E0,-5.915095210E-1,-1.020354390E0,2.705609500E-1
6.523568255E0,-5.853136182E-1,-1.006252170E0,2.422691584E-1
6.543422942E0,-5.329712033E-1,-9.771574736E-1,2.186024934E-1
6.563276067E0,-4.447622597E-1,-9.317091107E-1,2.020393163E-1
6.583127630E0,-3.638487756E-1,-8.912174702E-1,1.869422197E-1
6.602980755E0,-2.791828513E-1,-8.415279388E-1,1.767669469E-1
6.622838567E0,-1.588249654E-1,-7.789928317E-1,1.766098738E-1
6.642685442E0,-6.544984877E-2,-7.468787432E-1,1.965066195E-1
6.662537005E0,-4.799655639E-3,-7.076960802E-1,1.945169419E-1
6.682390130E0,4.937536269E-2,-6.726324558E-1,1.929985136E-1
6.702243255E0,5.827654526E-2,-6.451784372E-1,1.814618856E-1
6.722096380E0,4.113740847E-2,-6.069905758E-1,1.611113399E-1
6.741947942E0,2.720968239E-2,-5.714905858E-1,1.404815465E-1
6.761807317E0,1.940806210E-2,-5.400223136E-1,1.242325380E-1
6.781652630E0,1.773254573E-2,-5.134932995E-1,1.084896624E-1
6.801505755E0,1.830850355E-2,-4.784296453E-1,8.525933325E-2
6.821358880E0,1.900663599E-2,-4.317770004E-1,5.202826485E-2
6.841210442E0,1.984439418E-2,-3.682993650E-1,3.665191354E-3
6.861065130E0,1.480039209E-2,-2.862339914E-1,-6.124360487E-2
6.880918255E0,1.937315450E-3,-2.107659578E-1,-1.263094842E-1
6.900776067E0,-5.777040031E-3,-1.496096253E-1,-1.773952693E-1
6.920621380E0,1.171115879E-2,-1.046848446E-1,-2.064200938E-1
6.940474505E0,5.789257213E-2,-6.967354566E-2,-2.163684666E-1
6.960327630E0,1.385616958E-1,-2.804744057E-2,-2.221105993E-1
6.980180755E0,2.341708243E-1,2.602285892E-2,-2.349213213E-1
7.000032317E0,3.963468075E-1,1.265712827E-1,-2.694439292E-1
7.019885442E0,6.151412725E-1,2.502104044E-1,-3.005805910E-1
7.039738567E0,7.134731412E-1,2.797762752E-1,-2.759540081E-1
7.059590130E0,7.212398648E-1,2.948035598E-1,-2.692519426E-1
7.079443255E0,6.326643825E-1,2.962521911E-1,-2.851518989E-1
7.099294817E0,5.273686647E-1,2.628291249E-1,-2.761634588E-1
7.119147942E0,4.194026291E-1,2.275909334E-1,-2.679603994E-1
7.139001067E0,2.253918201E-1,3.105115294E-1,-4.307996035E-1
7.158854192E0,1.847954541E-1,3.585255444E-1,-4.941027164E-1
7.178705755E0,1.189092845E-1,3.266383708E-1,-4.838925302E-1
7.198558880E0,7.532840967E-2,2.757969201E-1,-4.325973094E-1
7.218412005E0,4.206243437E-3,2.044304162E-1,-3.712838888E-1
7.238265130E0,-2.850122750E-2,1.111251116E-1,-2.605951130E-1
7.258116692E0,-2.059488557E-3,3.157300502E-2,-1.363451183E-1
7.277969817E0,2.743657492E-2,1.352630183E-2,-9.091419727E-2
7.297822942E0,4.665265232E-2,-8.779006079E-3,-6.110397726E-2
7.317680755E0,5.408775434E-2,-4.260348529E-2,-4.045673087E-2
7.337527630E0,7.363544405E-2,-7.197737694E-2,-2.260201424E-2
7.357380755E0,1.158025935E-1,-9.299114347E-2,-5.619960371E-3
7.377233880E0,1.619490981E-1,-9.948376566E-2,5.934119225E-3
7.397085442E0,1.880068630E-1,-9.773843735E-2,1.090830751E-2
7.416938567E0,1.870294809E-1,-9.293878078E-2,1.111774705E-2
7.436791692E0,1.650906950E-1,-8.717919886E-2,1.199041214E-2
7.456643255E0,1.407782584E-1,-8.798204362E-2,1.589994878E-2
7.476496380E0,1.180540696E-1,-8.810421824E-2,2.033308521E-2
7.496349505E0,8.047713339E-2,-1.538333148E-1,8.555603772E-2
7.516201067E0,5.485569686E-2,-2.377487570E-1,1.718276590E-1
7.536054192E0,4.968952388E-2,-3.015230894E-1,2.370506227E-1
7.555907317E0,4.661774263E-2,-3.365692794E-1,2.656740248E-1
7.575758880E0,3.275983036E-2,-3.846181929E-1,2.917667031E-1
7.595612005E0,3.822271014E-3,-4.466646612E-1,3.152064681E-1
7.615465130E0,-8.313003182E-2,-5.458691716E-1,3.565533161E-1
7.635316692E0,-3.596076369E-1,-7.446970940E-1,4.483227134E-1
7.655169817E0,-5.123763084E-1,-7.974932790E-1,4.368384480E-1
7.675022942E0,-5.784544945E-1,-7.800400257E-1,3.812148273E-1
7.694876067E0,-6.047565937E-1,-7.434055209E-1,3.255213499E-1
7.714727630E0,-5.733057261E-1,-6.871361136E-1,2.763205171E-1
7.734579192E0,-4.976282716E-1,-5.950350761E-1,2.045700401E-1
7.754432317E0,-3.955090642E-1,-5.421516299E-1,1.790533215E-1
7.774285442E0,-2.936342061E-1,-4.212526679E-1,8.758062124E-2
7.794137005E0,-2.154783458E-1,-3.665365875E-1,5.263913050E-2
7.813990130E0,-1.435184181E-1,-4.029965103E-1,9.695304185E-2
7.833843255E0,-1.111251116E-1,-3.961373866E-1,9.550441802E-2
7.853694817E0,-6.098180264E-2,-3.726103306E-1,9.103637189E-2
7.873547942E0,-1.691224054E-2,-3.397806883E-1,8.264134079E-2
7.893401067E0,-5.375613924E-3,-2.998126447E-1,7.175048441E-2
7.913254192E0,-1.769763790E-2,-2.603856623E-1,6.316346675E-2
7.933105755E0,-3.171263263E-2,-2.263866514E-1,5.440191180E-2
7.952958880E0,-4.127703607E-2,-1.935395598E-1,4.572762549E-2
7.972812005E0,-4.270820692E-2,-1.424537748E-1,3.502875939E-2
7.992663567E0,-6.026621908E-2,-7.393214852E-2,2.239257470E-2
8.012516692E0,-9.505063295E-2,-2.042035107E-3,9.128072299E-3
8.032369817E0,-1.273217648E-1,6.435029209E-2,-6.771877408E-3
8.052222942E0,-1.376017630E-1,1.291369051E-1,-3.228859231E-2
8.072074505E0,-1.281071603E-1,1.842020452E-1,-6.417575479E-2
8.091929192E0,-1.079835221E-1,2.366840988E-1,-9.763371944E-2
8.111780755E0,-7.035422325E-2,2.777342498E-1,-1.262396574E-1
8.131632317E0,-1.068141498E-2,3.149795830E-1,-1.552121341E-1
8.151485442E0,1.051037237E-1,3.661875427E-1,-1.886526346E-1
8.171338567E0,3.439345956E-1,4.533492625E-1,-2.327047437E-1
8.191191692E0,4.942597747E-1,4.978726208E-1,-2.381501794E-1
8.211044817E0,4.805763960E-1,4.915021658E-1,-2.227389216E-1
8.230896380E0,4.841368794E-1,4.905247986E-1,-2.095791399E-1
8.250749505E0,5.379279256E-1,5.069657564E-1,-2.080781460E-1
8.270602630E0,5.814389586E-1,5.627639890E-1,-2.803871334E-1
8.290454192E0,5.992937088E-1,6.492973566E-1,-4.184950590E-1
8.310307317E0,5.392718315E-1,6.366263032E-1,-4.294382632E-1
8.330158880E0,4.524416924E-1,5.967455506E-1,-4.136081338E-1
8.350012005E0,3.622081876E-1,5.413836837E-1,-3.825761676E-1
8.369865130E0,2.709798217E-1,4.898790121E-1,-3.594505489E-1
8.389718255E0,1.466076523E-1,4.392121136E-1,-3.709871769E-1
8.409569817E0,7.485716790E-2,4.077089131E-1,-3.687706292E-1
8.429422942E0,4.623377323E-2,3.756297529E-1,-3.333753347E-1
8.449276067E0,4.974188283E-3,3.400250375E-1,-2.985734642E-1
8.469127630E0,-1.710422710E-2,3.076840937E-1,-2.640159428E-1
8.488980755E0,-7.365289610E-3,2.789559662E-1,-2.076592743E-1
8.508833880E0,1.457349956E-2,2.487443238E-1,-1.367116421E-1
8.528687005E0,3.108431399E-2,2.095267773E-1,-5.684537441E-2
8.548538567E0,4.241150245E-2,1.676563323E-1,1.925098151E-2
8.568397942E0,4.892157763E-2,1.285784096E-1,8.382816613E-2
8.588243255E0,4.899139330E-2,1.052433550E-1,1.037598252E-1
8.608096380E0,4.886921868E-2,9.002408385E-2,1.110552996E-1
8.627949505E0,4.838052765E-2,7.510151714E-2,1.330289990E-1
8.647802630E0,4.584980011E-2,5.811946467E-2,1.741140485E-1
8.667654192E0,4.619886354E-2,3.429571912E-2,2.363873869E-1
8.687507317E0,4.070107639E-2,-6.806783844E-3,3.153984547E-1
8.707360442E0,2.228785492E-2,-4.698426276E-2,3.600090742E-1
8.727213567E0,-3.612831468E-3,-7.717845589E-2,3.559249938E-1
8.747065130E0,-3.176499158E-2,-1.103920713E-1,3.459067941E-1
8.766918255E0,-5.864306167E-2,-1.403070241E-1,3.373895884E-1
8.786771380E0,-9.819222242E-2,-1.753532290E-1,3.265685439E-1
8.806622942E0,-4.132066965E-1,-2.836858034E-1,3.357140720E-1
8.826476067E0,-5.692566037E-1,-3.265685439E-1,2.912954390E-1
8.846329192E0,-6.342875361E-1,-3.424859643E-1,2.442239225E-1
8.866182317E0,-6.314426661E-1,-3.476172388E-1,2.205572575E-1
8.886033880E0,-6.569070220E-1,-3.638662398E-1,2.149547487E-1
8.905887005E0,-6.368357539E-1,-4.021587670E-1,2.917143404E-1
8.925738567E0,-6.487563252E-1,-4.904724360E-1,4.728097022E-1
8.945591692E0,-5.980719924E-1,-5.258851647E-1,5.389053226E-1
8.965444817E0,-5.261469483E-1,-5.160938501E-1,5.028642416E-1
8.985297942E0,-4.515864849E-1,-5.015552640E-1,4.616570473E-1
9.005149505E0,-3.651054204E-1,-4.869294167E-1,4.194549918E-1
9.025002630E0,-2.579073012E-1,-4.715355933E-1,3.777939677E-1
9.044854192E0,-1.851445287E-1,-4.555658400E-1,3.371976018E-1
9.064708880E0,-1.361007690E-1,-4.358261526E-1,3.027273715E-1
9.084560442E0,-6.283185631E-2,-4.115660787E-1,2.743832171E-1
9.104413567E0,-5.689773243E-3,-3.800803423E-1,2.485697865E-1
9.124266692E0,1.288053021E-2,-3.507937193E-1,2.238733768E-1
9.144116692E0,7.330382708E-3,-3.237236738E-1,2.013935447E-1
9.163969817E0,1.047197584E-4,-2.963918149E-1,1.807463020E-1
9.183824505E0,-4.258603323E-3,-2.658660114E-1,1.614778638E-1
9.203676067E0,-4.450589418E-3,-2.370157093E-1,1.389631182E-1
9.223529192E0,-2.408554312E-3,-2.074149251E-1,1.095194072E-1
9.243380755E0,-8.028514567E-4,-1.711295396E-1,6.867870688E-2
9.263233880E0,4.206243437E-3,-1.279500872E-1,8.482299745E-3
9.283085442E0,1.303760987E-2,-6.363470107E-2,-1.013687253E-1
9.302940130E0,1.336922217E-2,1.680752076E-2,-2.559001744E-1
9.322791692E0,1.909390278E-2,5.338962004E-2,-3.168296218E-1
9.342643255E0,2.850122750E-2,6.370452046E-2,-3.187669218E-1
9.362497942E0,5.085889250E-2,7.019714266E-2,-3.062180281E-1
9.382349505E0,2.043256909E-1,8.906415105E-2,-2.772455513E-1
9.402202630E0,3.821223974E-1,1.106189713E-1,-2.443286479E-1
9.422055755E0,4.872959256E-1,1.273566782E-1,-2.138202786E-1
9.441908880E0,5.534613729E-1,1.437627673E-1,-1.871167421E-1
9.461760442E0,7.107678652E-1,1.688605994E-1,-1.447227001E-1
9.481613567E0,7.541916966E-1,1.842893213E-1,-1.162214726E-1
9.501465130E0,6.782873273E-1,2.418677211E-1,-2.162812054E-1
9.521318255E0,5.464276671E-1,2.843315899E-1,-3.232524395E-1
9.541171380E0,4.603655040E-1,2.852042615E-1,-3.393967152E-1
9.561022942E0,3.327121139E-1,3.977081776E-1,-6.398900747E-1
9.580876067E0,2.590766847E-1,4.244291782E-1,-7.420616150E-1
9.600729192E0,1.827708781E-1,3.948109150E-1,-7.299490571E-1
9.620580755E0,1.627344936E-1,3.534989953E-1,-6.545682549E-1
9.640433880E0,1.393645406E-1,3.057118654E-1,-5.668480396E-1
9.660287005E0,1.531002820E-1,2.371553332E-1,-3.973067403E-1
9.680138567E0,2.027025372E-1,1.562942266E-1,-1.750041693E-1
9.699991692E0,2.157401443E-1,1.162563786E-1,-7.653268427E-2
9.719844817E0,2.010270208E-1,8.621926606E-2,-2.314306609E-2
9.739696380E0,1.841845959E-1,7.155849785E-2,-1.761037298E-2
9.759549505E0,1.676563323E-1,6.693337858E-2,-4.564036056E-2
9.779402630E0,1.603608578E-1,6.557202339E-2,-7.960446924E-2
9.799255755E0,1.661029905E-1,6.408849359E-2,-1.000422761E-1
9.819113567E0,1.755103022E-1,5.695009232E-2,-9.936159104E-2
9.838960442E0,1.781283021E-1,5.906194076E-2,-1.077915356E-1
9.858813567E0,1.708502769E-1,6.485643238E-2,-1.143365204E-1
9.878666692E0,1.551423222E-1,5.379104614E-2,-9.157742560E-2
9.898518255E0,1.377413869E-1,3.502875939E-2,-5.103342608E-2
9.918371380E0,9.402088821E-2,-1.785471849E-2,4.934045672E-2
9.938224505E0,5.152212083E-2,-7.655014098E-2,1.610764414E-1
9.958076067E0,4.075343907E-2,-1.015083492E-1,2.072578520E-1
9.977929192E0,3.502875939E-2,-1.102873534E-1,2.114117295E-1
9.997782317E0,3.874630900E-3,-1.289623827E-1,2.172934860E-1
1.001763388E1,-8.141960949E-2,-1.601165086E-1,2.160368562E-1
1.003748701E1,-2.683269083E-1,-2.214124650E-1,2.304707319E-1
1.005734013E1,-4.930031598E-1,-3.035651147E-1,2.714161575E-1
1.007719326E1,-6.321408153E-1,-3.613355160E-1,2.927266359E-1
1.009704482E1,-7.221997976E-1,-3.999596536E-1,2.950130105E-1
1.011689794E1,-6.987251043E-1,-4.069933295E-1,2.833716571E-1
1.013675107E1,-6.882007718E-1,-4.554611146E-1,3.866253197E-1
1.015660263E1,-6.463652253E-1,-4.649557173E-1,4.271867871E-1
1.017645576E1,-5.646489263E-1,-4.325100482E-1,3.869220316E-1
1.019630888E1,-4.805414975E-1,-3.963119090E-1,3.438124061E-1
1.021616201E1,-3.092548847E-1,-3.309667706E-1,2.578549385E-1
1.023601357E1,-2.275385708E-1,-2.954493463E-1,2.219011635E-1
1.025586669E1,-1.976236254E-1,-2.734581828E-1,2.028945237E-1
1.027571826E1,-1.634675413E-1,-2.494773567E-1,1.834864616E-1
1.029557138E1,-1.448448747E-1,-2.242399007E-1,1.626995951E-1
1.031542451E1,-1.354200989E-1,-1.986010075E-1,1.370083392E-1
1.033527763E1,-1.298524886E-1,-1.761386245E-1,1.204277202E-1
1.035512919E1,-1.211782098E-1,-1.491383910E-1,1.048942879E-1
1.037498232E1,-1.121548563E-1,-1.177224591E-1,9.321803600E-2
1.039483544E1,-1.054353416E-1,-8.480554819E-2,8.667305112E-2
1.041468857E1,-1.119977757E-1,-5.897467583E-2,8.300785720E-2
1.043454013E1,-1.302015632E-1,-4.101523757E-2,8.108799905E-2
1.045439794E1,-1.405513585E-1,-2.502802201E-2,7.862707973E-2
1.047424638E1,-1.387187690E-1,-7.574729156E-3,7.019714266E-2
1.049409794E1,-1.269028932E-1,1.038470864E-2,5.222025141E-2
1.051395107E1,-1.078962535E-1,2.885029279E-2,2.846631967E-2
1.053380419E1,-7.937757671E-2,6.155776232E-2,-3.743731230E-2
1.055365576E1,-4.888667166E-2,8.456119895E-2,-8.585274220E-2
1.057350888E1,-2.961823717E-2,9.423032403E-2,-1.015083492E-1
1.059336201E1,-2.216568217E-2,1.064127237E-1,-1.183507740E-1
1.061321513E1,-8.517206647E-3,1.260476708E-1,-1.382300705E-1
1.063306669E1,4.858996719E-2,1.566956639E-1,-1.597674340E-1
1.065291826E1,2.105390728E-1,2.136632055E-1,-1.937664598E-1
1.067277294E1,5.547180176E-1,3.315950930E-1,-2.883283794E-1
1.069262451E1,6.660699844E-1,3.961199224E-1,-3.332182467E-1
1.071247763E1,7.084640265E-1,4.504869282E-1,-3.904476166E-1
1.073233076E1,6.753028035E-1,4.870515764E-1,-4.583583772E-1
1.075218232E1,5.780181289E-1,4.812047184E-1,-4.826009870E-1
1.077203544E1,5.084842443E-1,4.667359591E-1,-4.822519124E-1
1.079188857E1,4.413239658E-1,4.369082749E-1,-4.538379610E-1
1.081174169E1,3.684739172E-1,4.027347267E-1,-4.177096486E-1
1.083159326E1,2.782229483E-1,3.406533599E-1,-3.323106766E-1
1.085144638E1,2.256012559E-1,3.053278923E-1,-2.924997211E-1
1.087129794E1,2.006430477E-1,2.794097662E-1,-2.628814876E-1
1.089115107E1,1.815840602E-1,2.500358820E-1,-2.360732406E-1
1.091100419E1,1.662077010E-1,2.167175263E-1,-2.013062686E-1
1.093085576E1,1.517563760E-1,1.861917228E-1,-1.669407487E-1
1.095070888E1,1.398706883E-1,1.591914743E-1,-1.335176826E-1
1.097056201E1,1.309345961E-1,1.339365691E-1,-1.135336682E-1
1.099041357E1,1.239532828E-1,1.080009714E-1,-1.121723130E-1
1.101026669E1,1.202531829E-1,7.709119469E-2,-1.199739352E-1
1.103011982E1,1.232027933E-1,3.998549283E-2,-1.207418740E-1
1.104997138E1,1.321214288E-1,8.726646192E-3,-1.126260981E-1
1.106982451E1,1.415112913E-1,-1.080358773E-2,-1.192583442E-1
1.108967763E1,1.443561763E-1,-2.635447122E-2,-1.191710830E-1
1.110952919E1,1.360309571E-1,-4.630358517E-2,-9.601055831E-2
1.112938232E1,1.239358261E-1,-6.914994121E-2,-5.663593486E-2
1.114924169E1,9.534733742E-2,-1.031664088E-1,9.494591504E-3
1.116908701E1,6.497860700E-2,-1.334653348E-1,6.736970693E-2
1.118894013E1,4.218460619E-2,-1.495921761E-1,9.239772707E-2
1.120879326E1,3.036872949E-3,-1.716531366E-1,1.164483652E-1
1.122864638E1,-6.030112505E-2,-2.034704834E-1,1.481260955E-1
1.124849794E1,-1.488242298E-1,-2.523746192E-1,1.942900568E-1
1.126835107E1,-2.440144867E-1,-3.013311028E-1,2.283588797E-1
1.128820419E1,-3.843215108E-1,-3.627143204E-1,2.545737326E-1
1.130805576E1,-5.848423839E-1,-4.385314286E-1,2.827258706E-1
1.132790888E1,-6.420891881E-1,-4.688652456E-1,2.644348443E-1
1.134776200E1,-6.162583232E-1,-4.837703705E-1,2.655169368E-1
1.136761513E1,-6.045471430E-1,-5.091823339E-1,3.124662936E-1
1.138746669E1,-5.380326509E-1,-5.201953650E-1,3.550523221E-1
1.140731982E1,-4.676784277E-1,-5.176821351E-1,3.557155430E-1
1.142717294E1,-3.873234689E-1,-5.027246475E-1,3.228859007E-1
1.144702450E1,-1.914277077E-1,-4.662472606E-1,2.651504278E-1
1.146687763E1,-1.014559865E-1,-4.495793581E-1,2.282541543E-1
1.148673076E1,-7.808603346E-2,-4.451985955E-1,2.091777027E-1
1.150658232E1,-4.888667166E-2,-4.347964227E-1,1.872563809E-1
1.152643544E1,-4.169591516E-2,-4.174652994E-1,1.710771769E-1
1.154628857E1,-4.996877536E-2,-3.907792270E-1,1.254193634E-1
1.156614169E1,-7.152359188E-2,-3.536735177E-1,3.893829510E-2
1.158599326E1,-7.291985303E-2,-3.150668442E-1,-3.862413764E-2
1.160584638E1,-6.396631896E-2,-2.911209166E-1,-8.522442728E-2
1.162569950E1,-5.241223797E-2,-2.895152271E-1,-7.967428118E-2
1.164555107E1,-4.064871743E-2,-2.966361642E-1,-4.738568887E-2
1.166540419E1,-2.981022373E-2,-2.984687686E-1,-1.699950732E-2
1.168525732E1,-2.153736353E-2,-2.888694406E-1,-3.804817796E-3
1.170510888E1,-1.258382387E-2,-2.683967352E-1,-4.363323096E-3
1.172496200E1,-2.809980186E-3,-2.432290763E-1,-6.614797749E-3
1.174481513E1,8.744099177E-3,-2.149896622E-1,-1.661553420E-2
1.176466669E1,2.523746155E-2,-1.878323406E-1,-3.940953314E-2
1.178451982E1,4.363323003E-2,-1.584060788E-1,-6.351253390E-2
1.180437138E1,5.904448777E-2,-9.983283281E-2,-7.611380517E-2
1.182422607E1,5.904448777E-2,-9.983283281E-2,-7.611380517E-2
1.184408388E1,1.710422635E-1,-3.634299040E-1,-5.679301545E-2
1.186393076E1,1.710422635E-1,-3.634299040E-1,-5.679301545E-2
1.188378232E1,4.126132727E-1,-7.659377456E-1,1.022762898E-2
1.190363544E1,7.216413021E-1,-9.664236903E-1,1.597499847E-1
1.192348857E1,8.395557404E-1,-1.070672274E0,2.609790862E-1
1.194334013E1,8.546877503E-1,-1.175549030E0,3.015754521E-1
1.196319482E1,8.928406239E-1,-1.148601174E0,3.283138871E-1
1.198304638E1,8.928406239E-1,-1.148601174E0,3.283138871E-1
1.200289950E1,8.928406239E-1,-1.148601174E0,3.283138871E-1
1.202275263E1,8.928406239E-1,-1.148601174E0,3.283138871E-1
1.204260419E1,8.928406239E-1,-1.148601174E0,3.283138871E-1
1.206245576E1,8.928406239E-1,-1.148601174E0,3.283138871E-1
1.208230888E1,8.928406239E-1,-1.148601174E0,3.283138871E-1
1.210216200E1,8.672192097E-1,-1.352874517E0,3.676885068E-1
1.212201357E1,7.905294299E-1,-1.417242289E0,4.033979475E-1
1.214186669E1,7.075390220E-1,-1.397572398E0,4.372224212E-1
1.216171982E1,6.453354955E-1,-1.271053433E0,4.412192404E-1
1.218157294E1,6.118600965E-1,-1.042694569E0,4.346044362E-1
1.220142607E1,6.234316230E-1,-7.747691274E-1,4.377111197E-1
1.222127919E1,5.996951461E-1,-5.639333129E-1,4.541695714E-1
1.224113076E1,5.532344580E-1,-4.117580652E-1,4.693190455E-1
1.226098232E1,5.173679590E-1,-2.422691584E-1,5.080304146E-1
1.228083544E1,5.183453560E-1,-4.443608224E-2,5.644045472E-1
1.230068857E1,5.926265717E-1,2.653947771E-1,6.707823873E-1
1.232054638E1,7.172604799E-1,5.156924129E-1,7.466867566E-1
1.234039326E1,7.896742225E-1,6.627014875E-1,7.920129299E-1
1.236024638E1,7.914369702E-1,7.384837270E-1,8.175471425E-1
1.238009950E1,7.351850271E-1,7.762526274E-1,8.382816315E-1
1.239995107E1,6.716725230E-1,7.856250405E-1,8.412661552E-1
1.241980419E1,6.163106561E-1,7.681193948E-1,8.252265453E-1
1.243965732E1,6.163106561E-1,7.681193948E-1,8.252265453E-1
1.245950888E1,5.735675693E-1,7.551516294E-1,8.063769937E-1
1.247936200E1,5.441936851E-1,7.405431867E-1,8.065689802E-1
1.249921513E1,5.198113918E-1,7.483273745E-1,8.097106218E-1
1.251906669E1,4.968603253E-1,7.936361432E-1,8.104611039E-1
1.253892450E1,4.714308679E-1,8.312130570E-1,8.144055605E-1
1.255877294E1,4.459141791E-1,8.498008251E-1,8.264308572E-1
1.257862450E1,4.231550694E-1,8.616690636E-1,8.334994316E-1
1.259847763E1,3.896273077E-1,8.504465818E-1,8.424530029E-1
1.261833076E1,3.038792610E-1,8.153131008E-1,8.742179871E-1
1.263818388E1,1.230282560E-1,7.338935137E-1,9.566847682E-1
1.265803544E1,-1.747074574E-1,5.201953650E-1,1.073377490E0
1.267788857E1,-4.722686410E-1,2.763379812E-1,1.175287247E0
1.269774169E1,-4.722686410E-1,2.763379812E-1,1.175287247E0
1.271759482E1,-4.722686410E-1,2.763379812E-1,1.175287247E0
1.273744638E1,-4.722686410E-1,2.763379812E-1,1.175287247E0
1.275729794E1,-4.722686410E-1,2.763379812E-1,1.175287247E0
1.277715263E1,-4.722686410E-1,2.763379812E-1,1.175287247E0
1.279700419E1,-7.280466557E-1,-7.311183959E-2,1.185933828E0
1.281685732E1,-9.665284157E-1,-3.814242482E-1,1.163820505E0
1.283671044E1,-1.146594048E0,-6.796312332E-1,1.147955418E0
1.285656357E1,-9.382191896E-1,-3.933797479E-1,9.897063971E-1
1.287641513E1,-7.469136715E-1,-2.121796757E-1,8.669224977E-1
1.289626826E1,-5.938133597E-1,-1.271297783E-1,7.797607183E-1
1.291611982E1,-4.752008021E-1,-8.105309308E-2,7.209780812E-1
1.293597294E1,-3.268303573E-1,-2.179916203E-2,6.893701553E-1
1.295582607E1,-1.435533315E-1,5.148721114E-2,6.913248897E-1
1.297567919E1,6.593853980E-2,1.305855364E-1,7.278895378E-1
1.299553076E1,2.231228948E-1,1.881814003E-1,7.556926608E-1
1.301538388E1,3.257656991E-1,2.202256471E-1,7.397927046E-1
1.303523700E1,4.204148948E-1,2.521128058E-1,7.082895041E-1
1.305508857E1,5.038940310E-1,3.024131954E-1,6.800500751E-1
1.307494169E1,5.705655813E-1,3.562740684E-1,6.664714217E-1
1.309479482E1,6.291912198E-1,3.909886479E-1,6.402740479E-1
1.311464638E1,6.769608259E-1,3.892433345E-1,5.894325972E-1
1.313449950E1,7.435277104E-1,3.465002179E-1,5.292012691E-1
1.315435263E1,8.191179037E-1,2.991319895E-1,4.831594825E-1
1.317420419E1,8.380023837E-1,2.700547874E-1,4.361054301E-1
1.319405732E1,8.143706322E-1,2.591115832E-1,3.958930373E-1
1.321390888E1,7.853283286E-1,2.433861643E-1,3.532546461E-1
1.323376826E1,7.832514048E-1,2.030166984E-1,3.073001206E-1
1.325361513E1,8.092219234E-1,1.436405927E-1,2.685188949E-1
1.327346669E1,8.688248992E-1,6.236061454E-2,2.404714674E-1
1.329331982E1,9.611527920E-1,-4.906120524E-2,2.157750577E-1
1.331317294E1,1.033060431E0,-1.315978318E-1,2.002416253E-1
1.333302451E1,1.088509440E0,-2.000321895E-1,1.906597614E-1
1.335287919E1,1.198552489E0,-3.288549483E-1,1.880417764E-1
1.337273076E1,1.290426612E0,-4.699473381E-1,1.699601561E-1
1.339258388E1,1.399841309E0,-6.217735410E-1,1.670105606E-1
1.341243544E1,1.478066921E0,-7.631102800E-1,2.017077059E-1
1.343228857E1,1.580832005E0,-8.387354016E-1,2.570869923E-1
1.345214169E1,1.666492701E0,-8.982162476E-1,3.175277412E-1
1.347199326E1,1.687820673E0,-8.999615908E-1,3.529579341E-1
1.349184638E1,1.621498108E0,-8.621402979E-1,3.311064243E-1
1.351169951E1,1.577585697E0,-8.405331373E-1,3.229906261E-1
1.353155263E1,1.588860512E0,-8.795761466E-1,3.281044364E-1
1.355140576E1,1.588022709E0,-9.260717034E-1,3.177022934E-1
1.357125732E1,1.543010712E0,-9.306619167E-1,2.827782333E-1
1.359111044E1,1.502623796E0,-9.600707293E-1,2.387610376E-1
1.361096201E1,1.521700263E0,-1.079800248E0,1.694016606E-1
1.363081669E1,1.507423401E0,-1.169789433E0,8.162904531E-2
1.365066826E1,1.491732955E0,-1.236705422E0,1.310742274E-2
1.367052138E1,1.492849946E0,-1.300601959E0,-3.588397056E-2
1.369037294E1,1.540497422E0,-1.416491747E0,-8.955284208E-2
1.371022607E1,1.578022003E0,-1.533271790E0,-1.611811519E-1
1.373007919E1,1.610345483E0,-1.626280308E0,-2.195973247E-1
1.374993076E1,1.636124015E0,-1.667766809E0,-2.362128645E-1
1.376978388E1,1.628165245E0,-1.638794303E0,-2.138202786E-1
1.378963701E1,1.686092734E0,-1.651308417E0,-1.754579544E-1
1.380948857E1,1.760932446E0,-1.720964432E0,-1.791580468E-1
1.382934169E1,1.765819430E0,-1.738871574E0,-1.931206882E-1
1.384920107E1,1.744002819E0,-1.757581472E0,-2.316401005E-1
1.386904794E1,1.695465207E0,-1.731244445E0,-2.476447672E-1
1.388889951E1,1.634518266E0,-1.675166965E0,-2.451664060E-1
