"Time (s)","Linear Acceleration x (m/s^2)","Linear Acceleration y (m/s^2)","Linear Acceleration z (m/s^2)"
1.623288900E-2,-7.964499950E0,-6.340999603E0,-1.413399935E0
3.608601400E-2,-6.225299835E0,-6.252099991E0,-3.800599813E0
5.593757600E-2,-3.989099979E0,-4.012799740E0,-3.169999838E0
7.579070100E-2,-1.628700018E0,-1.961199999E0,-9.258999825E-1
9.564382600E-2,1.569999903E-1,-1.029399991E0,1.278800011E0
1.154953890E-1,-8.749999851E-2,-1.204699993E0,1.075699925E0
1.353485140E-1,-3.768999875E-1,-1.529199958E0,-1.318999976E-1
1.552032010E-1,-8.022999763E-1,-1.110100031E0,-9.042999744E-1
1.750547640E-1,-1.549099922E0,-8.797000051E-1,-8.611999750E-1
1.949125760E-1,-1.446399927E0,-3.060999811E-1,7.329999655E-2
2.147594510E-1,-1.315299988E0,-8.739999682E-2,1.314399958E0
2.346125760E-1,-1.067600012E0,-5.217999816E-1,1.533199906E0
2.544657010E-1,-1.156599998E0,-6.302999854E-1,9.427999854E-1
2.743188260E-1,-1.609399915E0,-5.828999877E-1,-2.225999981E-1
2.941703890E-1,-1.939899921E0,-4.350000024E-1,-9.582999945E-1
3.140219510E-1,-2.362900019E0,3.294000030E-1,1.050999984E-1
3.338766390E-1,-2.757499933E0,8.944999576E-1,-7.649999857E-2
3.537282010E-1,-1.426599979E0,5.803999901E-1,9.695000052E-1
3.735813260E-1,-9.307999611E-1,5.266999602E-1,1.106199980E0
3.934328890E-1,-1.261899948E0,1.008599997E0,2.669000030E-1
4.132860140E-1,-4.170999825E-1,1.154500008E0,-6.703000069E-1
4.331391390E-1,-3.814999759E-1,8.637999892E-1,-1.509499907E0
4.529907010E-1,-4.691999853E-1,3.483999968E-1,-1.093999982E0
4.728438260E-1,4.573999941E-1,-4.854999781E-1,-1.045099974E0
4.926969510E-1,9.455999732E-1,-6.391999722E-1,-1.046199918E0
5.125500760E-1,9.659999609E-1,-7.150999904E-1,-5.421000123E-1
5.324016390E-1,2.700000048E0,-1.699499965E0,-3.741999865E0
5.522594510E-1,2.554100037E0,-1.866799951E0,-3.434000015E0
5.721063260E-1,3.339599848E0,-1.837899923E0,-8.389999717E-2
5.919594510E-1,3.680399895E0,4.844999909E-1,2.670899868E0
6.118172640E-1,9.280999899E-1,1.699999906E-3,1.061900020E0
6.316657010E-1,-1.314499974E0,-1.032999977E-1,1.498999894E-1
6.515172640E-1,-2.744899988E0,1.016199946E0,7.938999534E-1
6.713703890E-1,-1.924999952E0,-2.313999981E-1,-1.310999990E-1
6.912235140E-1,-1.365000010E-1,-6.269999593E-2,3.594999909E-1
7.110750760E-1,1.764799953E0,3.296000063E-1,7.727999687E-1
7.309282010E-1,1.122599959E0,-1.043399930E0,-8.588999510E-1
7.507813260E-1,6.882999539E-1,1.493699908E0,-2.113000005E-1
7.706328890E-1,-1.804499984E0,-6.793000102E-1,6.541999578E-1
7.904860140E-1,-2.486199856E0,-5.543999672E-1,-1.626899958E0
8.103391390E-1,-1.454499960E0,-8.529999852E-1,8.429999948E-1
8.301922640E-1,-2.242999971E-1,-8.700999618E-1,-4.602999985E-1
8.500438260E-1,3.170000017E-1,-2.877999842E-1,-6.917999983E-1
8.698969510E-1,8.999999762E-1,-2.417999983E0,3.323999941E-1
8.897500760E-1,-1.087999940E0,-3.083099842E0,1.807699919E0
9.096032010E-1,-8.948999643E-1,-1.073099971E0,1.100000024E0
9.294547640E-1,-1.079800010E0,-2.113000005E-1,1.377999932E-1
9.493078890E-1,-9.519999623E-1,6.649999619E-1,-4.831999838E-1
9.691610140E-1,-4.156000018E-1,5.464000106E-1,-1.926099896E0
9.890125760E-1,-4.439999759E-1,7.736999989E-1,-1.250399947E0
1.008865701E0,-1.431999952E-1,3.089999855E-1,-8.042999506E-1
1.028718826E0,2.122000009E-1,7.289999723E-2,4.789999872E-2
1.048571951E0,5.514999628E-1,-1.475999951E-1,3.116999865E-1
1.068423514E0,9.012999535E-1,-6.216999888E-1,9.089999795E-1
1.088276639E0,9.566999674E-1,-6.028999686E-1,3.472299814E0
1.108129764E0,4.034000039E-1,-2.680999935E-1,1.740199924E0
1.127981326E0,8.740999699E-1,-3.721999824E-1,1.262799978E0
1.147834451E0,7.889999747E-1,-3.064999878E-1,1.204199910E0
1.167687576E0,-1.999999949E-4,-9.365999699E-1,7.319999933E-1
1.187539139E0,-3.390799999E0,-4.869999886E-1,-8.989999890E-1
1.207392264E0,-3.669099808E0,-6.500999928E-1,-2.622699976E0
1.227245389E0,-2.064899921E0,-1.042599916E0,-3.970199823E0
1.247096951E0,-1.774500012E0,-1.931199908E0,-4.042599678E0
1.266950076E0,-3.009099960E0,-1.993399978E0,-1.450199962E0
1.286803201E0,-2.840699911E0,-3.492999971E-1,-5.144000053E-1
1.306654764E0,3.421999812E-1,2.978000045E-1,6.309999824E-1
1.326507889E0,2.374099970E0,-6.032999754E-1,3.790999949E-1
1.346361014E0,4.557300091E0,-1.243999973E-1,1.466300011E0
1.366214139E0,4.792299747E0,1.403299928E0,2.867499828E0
1.386065701E0,2.110899925E0,2.083799839E0,3.330299854E0
1.405917264E0,-4.643999934E-1,1.845399976E0,1.881299973E0
1.425771951E0,-1.809399962E0,9.872999787E-1,-9.161999822E-1
1.445625076E0,-2.808099985E0,-8.247999549E-1,-2.172800064E0
1.465475076E0,-2.225999832E0,-2.388900042E0,-1.563599944E0
1.485328201E0,-1.162999988E0,-2.382099867E0,-7.469999790E-1
1.505181326E0,4.007000029E-1,-1.134899974E0,6.796000004E-1
1.525034451E0,7.369999588E-2,-5.794000030E-1,7.591999769E-1
1.544887576E0,-6.313999891E-1,-5.076999664E-1,5.634999871E-1
1.564739139E0,-8.933999538E-1,-5.573999882E-1,2.072999924E-1
1.584592264E0,-5.644999743E-1,-7.549999952E-1,-1.539999992E-1
1.604443826E0,4.299999680E-3,-5.500000119E-1,-1.810999960E-1
1.624296951E0,4.787999988E-1,2.479999885E-2,-8.089999855E-2
1.644150076E0,6.657999754E-1,8.254999518E-1,1.603000015E-1
1.664001639E0,5.615999699E-1,1.495199919E0,5.076999664E-1
1.683854764E0,2.468999922E-1,2.073699951E0,9.339999408E-2
1.703709451E0,6.807999611E-1,2.433500051E0,-1.515000015E-1
1.723561014E0,1.588799953E0,1.005100012E0,-4.069999978E-2
1.743414139E0,2.009799957E0,6.147999763E-1,1.622999907E-1
1.763265701E0,2.127099991E0,1.490999937E0,1.329999976E-2
1.783118826E0,2.239899874E0,2.170699835E0,2.213999927E-1
1.802970389E0,3.478299856E0,2.562599897E0,-6.506999731E-1
1.822823514E0,1.570199966E0,4.050199986E0,1.211599946E0
1.842676639E0,8.154000044E-1,2.569299936E0,9.375999570E-1
1.862528201E0,-9.943999648E-1,1.991499901E0,5.515999794E-1
1.882381326E0,-3.601499796E0,1.623199940E0,1.380499959E0
1.902234451E0,-3.749599934E0,5.773000121E-1,1.129699945E0
1.922087576E0,-3.869499922E0,5.850999951E-1,1.182399988E0
1.941939139E0,-5.952699661E0,-1.567899942E0,1.722599983E0
1.961792264E0,-5.243299961E0,-9.112299919E0,-1.766099930E0
1.981645389E0,-1.169499993E0,-7.806900024E0,-1.017179966E1
2.001496951E0,4.400899887E0,-1.554099917E0,-7.589999586E-2
2.021350076E0,8.972899437E0,-9.275999665E-1,4.074299812E0
2.041203201E0,6.825199604E0,1.260999918E0,-9.937999845E-1
2.061056326E0,2.916599989E0,2.273999929E0,-2.737200022E0
2.080907889E0,2.225999981E-1,-2.373499870E0,-5.288399696E0
2.100761014E0,-2.574300051E0,-6.025699615E0,-5.356599808E0
2.120614139E0,-4.950699806E0,-7.142799854E0,1.816999912E-1
2.140465701E0,-8.501999855E0,-9.365699768E0,5.300199986E0
2.160318826E0,-4.524699688E0,-8.579699516E0,4.207999706E0
2.180171951E0,2.456199884E0,-7.848199844E0,1.852399945E0
2.200025076E0,4.534399986E0,-4.055799961E0,1.902599931E0
2.219876639E0,5.012399673E0,-2.569999993E-1,1.532999992E0
2.239729764E0,2.699599981E0,2.482800007E0,-7.727999687E-1
2.259582889E0,7.537999749E-1,3.018599987E0,-1.447299957E0
2.279434451E0,-8.065999746E-1,2.458600044E0,-1.267499924E0
2.299287576E0,-1.785299897E0,1.497299910E0,-4.711000025E-1
2.319140701E0,-2.057800055E0,9.294999838E-1,3.282999992E-1
2.338992264E0,-1.828699946E0,7.006999850E-1,-2.328999937E-1
2.358845389E0,-1.520299911E0,8.337000012E-1,-5.685999990E-1
2.378698514E0,-7.217999697E-1,4.509999752E-1,-2.759999931E-1
2.398551639E0,2.795999944E-1,3.094999790E-1,-4.727999866E-1
2.418409451E0,6.570999622E-1,2.529000044E-1,-4.836999774E-1
2.438256326E0,7.658999562E-1,7.769999653E-2,-2.561999857E-1
2.458107889E0,8.026999831E-1,-1.329999976E-2,-3.700000001E-3
2.477961014E0,9.825999737E-1,2.639999986E-2,3.630999923E-1
2.497814139E0,9.948999882E-1,1.363999993E-1,8.546999693E-1
2.517667264E0,5.965999961E-1,3.409999907E-1,1.416199923E0
2.537518826E0,3.039000034E-1,1.057999954E-1,1.548399925E0
2.557371951E0,1.316999942E-1,-4.396999776E-1,1.613999963E0
2.577225076E0,-4.197999835E-1,-1.665799975E0,9.654999971E-1
2.597076639E0,-1.567600012E0,-4.850500107E0,-5.938999653E-1
2.616929764E0,-3.439499855E0,-5.773099899E0,-1.275799990E0
2.636782889E0,-3.895399809E0,-8.328800201E0,-1.685699940E0
2.656636014E0,1.855999976E-1,-5.924900055E0,-1.397300005E0
2.676487576E0,3.323499918E0,-4.081999779E0,-3.509999812E-1
2.696340701E0,3.678399801E0,-4.386600018E0,-1.411999911E-1
2.716193826E0,1.595999956E0,-4.699100018E0,1.177999973E-1
2.736045389E0,-9.258999825E-1,-3.078500032E0,3.797999918E-1
2.755898514E0,-2.280900002E0,-1.182500005E0,4.688999951E-1
2.775751639E0,-2.060999870E0,3.612000048E-1,7.111999989E-1
2.795604764E0,-4.488999844E-1,7.911999822E-1,6.202999949E-1
2.815456326E0,3.865999877E-1,7.707999945E-1,-2.369999886E-1
2.835309451E0,2.766999900E-1,9.100999832E-1,-6.818999648E-1
2.855161014E0,1.451999992E-1,1.032400012E0,-8.596000075E-1
2.875014139E0,5.031999946E-1,1.366799951E0,-4.881999791E-1
2.894867264E0,9.980999827E-1,1.908299923E0,1.938999891E-1
2.914720389E0,1.746099949E0,2.681299925E0,8.980999589E-1
2.934571951E0,1.503600001E0,3.595899820E0,1.033999920E0
2.954425076E0,8.867999911E-1,4.337899685E0,7.731999755E-1
2.974276639E0,-1.297699928E0,5.526099682E0,7.150999904E-1
2.994129764E0,-2.629499912E0,5.316099644E0,2.513999939E-1
3.013982889E0,-2.866400003E0,4.611999989E0,-3.616999984E-1
3.033836014E0,-1.948199987E0,2.964299917E0,-2.644000053E-1
3.053687576E0,-6.385999918E-1,2.329999954E-1,5.291999578E-1
3.073540701E0,4.452999830E-1,-1.912899971E0,1.870700002E0
3.093393826E0,7.051999569E-1,-3.530900002E0,3.687899828E0
3.113245389E0,1.757699966E0,-7.840699673E0,5.921999931E0
3.133098514E0,3.322299957E0,-1.547889996E1,-2.166300058E0
3.152950076E0,-9.627999663E-1,-1.366749954E1,-4.894399643E0
3.172803201E0,-3.203099966E0,-1.458400011E0,-5.256000042E0
3.192656326E0,-1.937199950E0,5.204499722E0,-4.149600029E0
3.212509451E0,1.170599937E0,5.977099895E0,-1.622399926E0
3.232361014E0,3.485399961E0,2.998899937E0,-1.222599983E0
3.252220389E0,2.331500053E0,-1.163200021E0,5.895000100E-1
3.272067264E0,4.723999798E-1,-4.217999935E0,1.170099974E0
3.291918826E0,-1.230499983E0,-4.359499931E0,1.009999990E0
3.311771951E0,-2.488800049E0,-2.539799929E0,4.397999942E-1
3.331625076E0,-1.903099895E0,-1.071499944E0,1.771999896E-1
3.351476639E0,-1.693999916E-1,-3.463999927E-1,1.032400012E0
3.371329764E0,1.496399999E0,2.865999937E-1,1.696900010E0
3.391189139E0,1.447199941E0,9.171999693E-1,1.181800008E0
3.411036014E0,3.119999915E-2,8.894000053E-1,-2.805999815E-1
3.430887576E0,-9.580000043E-1,7.810999751E-1,-1.420799971E0
3.450740701E0,-1.176399946E0,3.902999759E-1,-1.467899919E0
3.470593826E0,-7.272999883E-1,2.099999972E-2,-8.406999707E-1
3.490445389E0,-1.885000020E-1,4.245999753E-1,-3.243999779E-1
3.510298514E0,2.852999866E-1,7.744999528E-1,2.842999995E-1
3.530151639E0,5.187000036E-1,8.380999565E-1,8.344999552E-1
3.550003201E0,7.888000011E-1,1.331099987E0,1.340199947E0
3.569856326E0,7.451999784E-1,2.093099833E0,1.600499988E0
3.589709451E0,3.143000007E-1,2.806799889E0,1.129999995E0
3.609562576E0,3.342999816E-1,1.912199974E0,6.152999997E-1
3.629414139E0,2.264999896E-1,2.818999887E-1,7.892999649E-1
3.649267264E0,3.194999993E-1,-1.175999999E0,2.849200010E0
3.669120389E0,5.579999834E-2,-2.305099964E0,4.518899918E0
3.688971951E0,-7.845999599E-1,-2.853099823E0,1.235899925E0
3.708825076E0,-2.991999865E0,-6.175799847E0,-3.840399981E0
3.728678201E0,-5.667099953E0,-8.853899956E0,-5.129399776E0
3.748531326E0,-3.877099991E0,-7.963399887E0,-5.012799740E0
3.768382889E0,1.573599935E0,-4.162099838E0,-1.513399959E0
3.788236014E0,5.469399929E0,-2.121599913E0,1.781699896E0
3.808093826E0,5.827099800E0,-1.842899919E0,2.254199982E0
3.827940701E0,2.843099833E0,-3.131199837E0,1.033699989E0
3.847793826E0,-8.746999502E-1,-3.736799955E0,-3.707000017E-1
3.867646951E0,-3.090999842E0,-1.580699921E0,-5.303999782E-1
3.887498514E0,-3.343799829E0,5.048999786E-1,-5.349999666E-1
3.907350076E0,-2.578799963E0,7.639999986E-1,5.679999590E-1
3.927203201E0,-8.578000069E-1,-2.876999974E-1,6.876999736E-1
3.947062576E0,7.304999828E-1,-8.313999772E-1,-3.844999969E-1
3.966909451E0,1.204399943E0,-6.133999825E-1,-6.308999658E-1
3.986762576E0,1.294899940E0,-5.900000036E-2,-6.473999619E-1
4.006614139E0,1.552899957E0,6.040999889E-1,1.348000020E-1
4.026467264E0,1.391699910E0,7.601000071E-1,8.552999496E-1
4.046320389E0,7.991999984E-1,6.761999726E-1,1.178200006E0
4.066171951E0,5.562999845E-1,1.015599966E0,1.023499966E0
4.086025076E0,2.532999814E-1,1.593999982E0,6.862999797E-1
4.105878201E0,4.399999976E-3,2.107800007E0,4.615999758E-1
4.125731326E0,-2.918999791E-1,2.511100054E0,4.384999871E-1
4.145582889E0,-4.655999839E-1,2.752599955E0,-4.519999772E-2
4.165436014E0,-7.714999914E-1,3.168099880E0,-6.977999806E-1
4.185289139E0,-8.828999996E-1,3.200099945E0,-1.161399961E0
4.205142264E0,-9.106000066E-1,2.907799959E0,-9.904999733E-1
4.224993826E0,-1.007200003E0,2.365399837E0,-6.581999660E-1
4.244846951E0,-8.514999747E-1,1.842799902E0,-2.400999963E-1
4.264700076E0,-1.187799931E0,1.370299935E0,-1.315999925E-1
4.284551639E0,-1.625299931E0,1.022599936E0,5.256000161E-1
4.304404764E0,-2.052799940E0,3.687999845E-1,1.131299973E0
4.324256326E0,-2.920899868E0,-1.083000004E-1,7.390999794E-1
4.344109451E0,-3.257499933E0,4.079999775E-2,2.326999903E-1
4.363962576E0,-2.667599916E0,7.051999569E-1,-3.488000035E-1
4.383815701E0,-2.012099981E0,-1.086999997E-1,2.773000002E-1
4.403667264E0,7.691999674E-1,-4.529099941E0,2.094300032E0
4.423520389E0,4.087100029E0,-1.387379932E1,2.259500027E0
4.443371951E0,3.164999962E0,-1.142879963E1,-7.666999698E-1
4.463225076E0,4.163899899E0,-1.989999972E-2,-7.100699902E0
4.483078201E0,3.033799887E0,6.606499672E0,-4.040499687E0
4.502931326E0,2.925999880E0,5.976699829E0,-3.767099857E0
4.522782889E0,1.207199931E0,-1.611699939E0,-3.376199961E0
4.542636014E0,-1.169199944E0,-6.321499825E0,-2.399999946E-1
4.562489139E0,-2.452299833E0,-5.281300068E0,1.961999893E0
4.582340701E0,-2.648000002E0,-3.310799837E0,4.431699753E0
4.602193826E0,-1.931800008E0,-1.893399954E0,2.440099955E0
4.622046951E0,-7.149999738E-1,-6.281999946E-1,4.016000032E-1
4.641898514E0,-3.940000013E-2,9.381999969E-1,-1.379199982E0
4.661751639E0,2.472999990E-1,2.360800028E0,-1.290799975E0
4.681604764E0,2.005999982E-1,2.655900002E0,4.210000038E-1
4.701457889E0,-1.418000013E-1,1.812599897E0,1.715199947E0
4.721309451E0,-1.158999950E-1,2.899999917E-2,1.747200012E0
4.741162576E0,1.913999915E-1,-1.255900025E0,6.796999574E-1
4.761014139E0,1.370999962E-1,-1.222000003E0,-6.513000131E-1
4.780867264E0,1.213999987E-1,-7.920999527E-1,-8.932999969E-1
4.800720389E0,-1.877999902E-1,-6.746000051E-1,-4.315999746E-1
4.820573514E0,-4.212999940E-1,-9.498999715E-1,-1.636999995E-1
4.840425076E0,-4.199000001E-1,-1.433300018E0,-1.001999974E-1
4.860278201E0,-2.324999869E-1,-1.126399994E0,-1.475999951E-1
4.880129764E0,2.541999817E-1,-1.045899987E0,-3.291999996E-1
4.899984451E0,1.151700020E0,-1.207899928E0,-3.619000018E-1
4.919836014E0,1.654899955E0,-8.947999477E-1,-2.709999867E-2
4.939689139E0,1.643099904E0,-8.208000064E-1,1.733999997E-1
4.959542264E0,1.133999944E0,-4.670999944E-1,2.629999816E-1
4.979393826E0,1.586000025E-1,3.707999885E-1,6.747999787E-1
4.999246951E0,-7.793999910E-1,1.112900019E0,7.529000044E-1
5.019100076E0,-6.398000121E-1,1.356999993E0,1.152999997E-1
5.038951639E0,-6.920000166E-2,1.123099923E0,-5.779999867E-2
5.058803201E0,4.515999854E-1,4.298000038E-1,6.650999784E-1
5.078656326E0,-5.081999898E-1,-1.745399952E0,7.662999630E-1
5.098509451E0,-2.134700060E0,-3.620800018E0,-3.799999878E-2
5.118362576E0,-3.812399864E0,-4.503600121E0,-1.074999928E0
5.138215701E0,-2.888999939E0,-5.118999958E0,-9.490999579E-1
5.158068826E0,5.582000017E-1,-3.975299835E0,-1.020200014E0
5.177920389E0,3.115700006E0,-3.206199884E0,-1.596899986E0
5.197773514E0,1.944199920E0,-3.456399918E0,-2.723999918E-1
5.217626639E0,-9.950000048E-2,-2.604199886E0,-1.237999946E-1
5.237478201E0,-4.414999783E-1,-1.616999984E0,4.698999822E-1
5.257329764E0,-1.202000022E0,-7.724999785E-1,1.240199924E0
5.277182889E0,-3.310000002E-1,3.869999945E-2,1.022599936E0
5.297036014E0,3.125000000E-1,1.605999917E-1,8.659999818E-2
5.316887576E0,3.243999779E-1,4.016000032E-1,-4.551999867E-1
5.336742264E0,2.678000033E-1,6.276999712E-1,-6.549999714E-1
5.356595389E0,2.072999924E-1,1.007599950E0,-4.718999863E-1
5.376446951E0,8.449999988E-2,1.104599953E0,-3.030999899E-1
5.396300076E0,1.369999945E-1,1.011699915E0,4.349999875E-2
5.416153201E0,1.537999958E-1,9.002999663E-1,1.561999917E-1
5.436004764E0,5.019999743E-1,1.255199909E0,6.001999974E-1
5.455856326E0,1.021499991E0,2.113600016E0,6.667999625E-1
5.475709451E0,1.189100027E0,3.191399813E0,3.955000043E-1
5.495562576E0,7.329999804E-1,4.257400036E0,3.066999912E-1
5.515415701E0,-2.078999877E-1,4.647799969E0,3.009999916E-2
5.535268826E0,-1.656999946E0,4.383100033E0,3.976999819E-1
5.555120389E0,-2.866999865E0,3.596799850E0,1.021099925E0
5.574973514E0,-3.322299957E0,2.307100058E0,1.306599975E0
5.594825076E0,-2.702800035E0,3.972999752E-1,2.108700037E0
5.614678201E0,-1.318199992E0,-1.587799907E0,2.614599943E0
5.634531326E0,-1.168499947E0,-1.819599986E0,1.894099951E0
5.654384451E0,-1.048799992E0,-8.833999634E-1,7.019999623E-1
5.674236014E0,-7.181999683E-1,2.349999920E-2,1.353600025E0
5.694089139E0,1.421499968E0,-4.610899925E0,4.025499821E0
5.713942264E0,6.861399651E0,-1.635779953E1,-5.901299953E0
5.733793826E0,1.304399967E0,-1.766169930E1,-4.111299992E0
5.753646951E0,8.873999715E-1,-4.010999680E0,-7.510299683E0
5.773500076E0,3.176399946E0,4.395699978E0,-4.135999680E0
5.793351639E0,2.191900015E0,6.946199894E0,-1.076099992E0
5.813204764E0,1.635699987E0,2.333299875E0,-2.805399895E0
5.833057889E0,-1.494399905E0,-4.539899826E0,-1.203899980E0
5.852911014E0,-3.321099997E0,-7.655200005E0,5.036000013E-1
5.872762576E0,-2.874399900E0,-6.809700012E0,2.922099829E0
5.892615701E0,-1.427799940E0,-2.642699957E0,4.390899658E0
5.912468826E0,1.039099932E0,2.201900005E0,2.831099987E0
5.932320389E0,1.965899944E0,3.161199808E0,5.647000074E-1
5.952173514E0,1.264799953E0,2.496500015E0,-2.976000011E-1
5.972025076E0,1.198499918E0,1.950599909E0,-3.414999843E-1
5.991878201E0,4.197999835E-1,9.953999519E-1,-2.585999966E-1
6.011731326E0,-3.525999784E-1,4.104999900E-1,2.919999883E-2
6.031589139E0,-8.720999956E-1,4.019999802E-1,-2.939999849E-2
6.051437576E0,-1.830500007E0,1.213699937E0,-1.530999988E-1
6.071289139E0,-2.516099930E0,2.148900032E0,-1.597999930E-1
6.091142264E0,-2.495800018E0,9.928999543E-1,-1.046000004E0
6.110995389E0,-2.322200060E0,-1.402499914E0,-1.387499928E0
6.130846951E0,-1.467299938E0,-2.470099926E0,-8.938999772E-1
6.150698514E0,1.665999889E-1,-2.814199924E0,9.666000009E-1
6.170553201E0,1.994199991E0,-3.093699932E0,6.744599819E0
6.190404764E0,4.119800091E0,-4.012000084E0,5.762000084E0
6.210257889E0,2.955499887E0,-5.803899765E0,-2.278699875E0
6.230111014E0,-1.819999889E-2,-6.284299850E0,-5.112799644E0
6.249962576E0,1.277400017E0,-4.299999714E0,-3.919399977E0
6.269815701E0,2.961999893E0,-1.134199977E0,-9.441999793E-1
6.289668826E0,2.788399935E0,1.265999973E-1,1.413900018E0
6.309521951E0,1.815299988E0,-4.673999846E-1,1.459499955E0
6.329373514E0,-1.823000014E-1,-2.181499958E0,1.929999888E-1
6.349226639E0,-2.328199863E0,-2.843099833E0,-2.465999871E-1
6.369079764E0,-2.735999823E0,-1.920699954E0,3.323999941E-1
6.388931326E0,-2.319900036E0,-7.453999519E-1,2.184000015E-1
6.408784451E0,-9.851999879E-1,-6.348999739E-1,-9.209999442E-2
6.428637576E0,1.887999922E-1,-6.787999868E-1,5.739999935E-2
6.448489139E0,7.991999984E-1,-1.113999963E0,1.034999937E-1
6.468340701E0,1.409299970E0,-8.183999658E-1,-4.214999974E-1
6.488193826E0,1.533899903E0,-4.666000009E-1,-5.461999774E-1
6.508046951E0,1.038800001E0,2.070000023E-2,-6.574999690E-1
6.527900076E0,9.427999854E-1,6.821999550E-1,-4.749999940E-2
6.547753201E0,5.151999593E-1,1.395599961E0,9.918999672E-1
6.567606326E0,1.181999967E-1,2.243199825E0,1.430599928E0
6.587457889E0,-4.439999908E-2,3.231599808E0,1.046599984E0
6.607311014E0,-8.774999976E-1,3.971199989E0,3.660999835E-1
6.627164139E0,-1.582099915E0,4.214600086E0,-4.837999940E-1
6.647015701E0,-2.230399847E0,4.219900131E0,-1.139799953E0
6.666868826E0,-2.765599966E0,4.264599800E0,-1.200600028E0
6.686721951E0,-2.716699839E0,4.114500046E0,-1.164199948E0
6.706575076E0,-2.272300005E0,3.906099796E0,-8.467999697E-1
6.726426639E0,-1.708599925E0,3.118899822E0,-4.667999744E-1
6.746278201E0,-1.138499975E0,1.715799928E0,5.033999681E-1
6.766131326E0,-7.450000048E-1,-5.748000145E-1,2.158400059E0
6.785984451E0,-2.750000060E-1,-2.714699984E0,3.039999962E0
6.805837576E0,3.718000054E-1,-3.320099831E0,4.165299892E0
6.825689139E0,8.302999735E-1,-2.416800022E0,5.195099831E0
6.845542264E0,1.507399917E0,-1.173900008E0,4.901000023E0
6.865401639E0,3.215299845E0,-3.354300022E0,6.786999702E0
6.885248514E0,7.478499889E0,-1.608880043E1,5.521199703E0
6.905100076E0,2.249899864E0,-2.265209961E1,-8.584699631E0
6.924953201E0,-7.452399731E0,-6.354499817E0,-1.253030014E1
6.944804764E0,-6.041499615E0,5.248899937E0,-1.078039932E1
6.964657889E0,-2.872999907E-1,9.979999542E0,-1.944099903E0
6.984511014E0,5.600299835E0,7.615699768E0,2.134099960E0
7.004362576E0,6.677099705E0,3.929999843E-2,2.969799995E0
7.024215701E0,1.911000013E-1,-7.000000000E0,1.517899990E0
7.044068826E0,-2.144599915E0,-1.180609989E1,7.580999732E-1
7.063920389E0,-1.542400002E0,-1.044579983E1,3.183599949E0
7.083773514E0,3.815999925E-1,-2.425199986E0,2.867199898E0
7.103626639E0,-5.845999718E-1,-7.518999577E-1,1.207199931E0
7.123479764E0,-2.698999941E-1,2.957499981E0,-9.778999686E-1
7.143331326E0,-1.196999997E-1,4.202600002E0,-1.410300016E0
7.163184451E0,-7.119999528E-1,1.848199964E0,-7.335000038E-1
7.183037576E0,-7.215999961E-1,-2.633999884E-1,5.527999997E-1
7.202890701E0,-2.692999840E-1,-7.044999599E-1,1.200999975E0
7.222742264E0,-6.143999696E-1,-6.068999767E-1,7.190999985E-1
7.242595389E0,-4.628999829E-1,2.289999872E-1,-1.129999980E-1
7.262448514E0,-1.465999931E-1,6.385999918E-1,-7.919999957E-1
7.282306326E0,1.105000004E-1,5.557000041E-1,-1.269500017E0
7.302153201E0,6.836000085E-1,7.339999676E-1,-4.585999846E-1
7.322006326E0,2.392999977E-1,-1.189299941E0,-9.089999646E-2
7.341857889E0,7.540000081E-1,3.068999946E-1,1.034399986E0
7.361711014E0,1.279199958E0,-9.290000051E-2,2.855799913E0
7.381564139E0,1.234599948E0,-5.121999979E-1,1.797499895E0
7.401417264E0,1.369699955E0,-1.603799939E0,-2.085999995E-1
7.421268826E0,1.001999974E0,-2.541199923E0,-9.246000051E-1
7.441121951E0,9.706999660E-1,-1.896699905E0,9.429000020E-1
7.460973514E0,7.119999528E-1,-1.486999989E0,4.053800106E0
7.480826639E0,-1.367900014E0,-4.278100014E0,6.312999725E-1
7.500679764E0,-5.397999763E0,-5.548899651E0,-3.848599911E0
7.520532889E0,-4.936800003E0,-8.441900253E0,-6.546199799E0
7.540386014E0,-3.030999899E-1,-8.014699936E0,-6.842199802E0
7.560237576E0,3.596699953E0,-5.121299744E0,-2.488499880E0
7.580089139E0,6.547499657E0,-1.789099932E0,2.160699844E0
7.599943826E0,6.016599655E0,-3.354899883E0,1.667699933E0
7.619795389E0,4.710199833E0,-3.310499907E0,3.078999817E-1
7.639648514E0,8.291999698E-1,-2.643800020E0,-1.204399943E0
7.659501639E0,-2.083600044E0,-1.237200022E0,-6.317999959E-1
7.679353201E0,-2.398799896E0,-2.161499977E0,1.001399994E0
7.699204764E0,-2.991899967E0,7.526999712E-1,2.227499962E0
7.719059451E0,-2.851999998E0,-6.087999940E-1,1.335199952E0
7.738911014E0,-7.066000104E-1,1.437899947E0,4.180999994E-1
7.758762576E0,-8.147999644E-1,1.940199971E0,-3.326999843E-1
7.778615701E0,1.069999952E-2,1.015900016E0,-9.319999814E-1
7.798468826E0,9.380999804E-1,1.105199933E0,-1.159299970E0
7.818321951E0,1.697099924E0,2.749799967E0,-6.006000042E-1
7.838175076E0,2.157899857E0,4.665699959E0,2.613999844E-1
7.858028201E0,1.209299922E0,6.189099789E0,1.112499952E0
7.877879764E0,-4.244000018E-1,6.732499599E0,1.734099984E0
7.897731326E0,-2.365900040E0,6.529399872E0,9.815999866E-1
7.917586014E0,-4.143399715E0,4.132800102E0,-3.269999847E-2
7.937439139E0,-4.154200077E0,2.652199984E0,-1.478999972E0
7.957290701E0,-3.042699814E0,2.352200031E0,-2.326999903E0
7.977142264E0,-2.260299921E0,2.009399891E0,-2.416499853E0
7.996995389E0,-1.259199977E0,2.448899984E0,-1.815599918E0
8.016848514E0,-4.975999892E-1,2.797399998E0,-1.287299991E0
8.036701639E0,-1.181999967E-1,2.926699877E0,-6.940000057E-1
8.056554764E0,2.732000053E-1,2.602999926E0,2.542999983E-1
8.076406326E0,2.539999969E-2,1.421800017E0,1.361599922E0
8.096259451E0,-5.825999975E-1,-1.824499965E0,4.355599880E0
8.116112576E0,-6.997999549E-1,-2.963299990E0,5.158999920E0
8.135964139E0,2.017499924E0,-7.497399807E0,9.259699821E0
8.155817264E0,9.286999702E0,-2.242000008E1,1.812699914E0
8.175668826E0,4.513700008E0,-2.466319847E1,-8.491199493E0
8.195521951E0,-1.696399927E0,-3.202800035E0,-1.426620007E1
8.215375076E0,-1.574199915E0,7.964099884E0,-6.072499752E0
8.235226639E0,-1.563699961E0,1.085849953E1,6.046999693E-1
8.255079764E0,1.053399920E0,5.169499874E0,-1.521899939E0
8.274932889E0,4.728399754E0,-6.050699711E0,-1.225999951E0
8.294784451E0,4.904999733E-1,-1.079479980E1,6.455999613E-1
8.314637576E0,-1.001299977E0,-1.110809994E1,2.256500006E0
8.334490701E0,-4.563999772E-1,-6.832999706E0,1.775900006E0
8.354342264E0,-1.097800016E0,-4.963999987E-1,2.606499910E0
8.374195389E0,-1.555999964E-1,3.311199903E0,1.508499980E0
8.394048514E0,8.424999714E-1,3.468799829E0,9.650999904E-1
8.413900076E0,5.852000117E-1,2.173399925E0,1.961999893E0
8.433753201E0,-5.979999900E-1,1.160799980E0,1.800699949E0
8.453606326E0,-1.276799917E0,4.180999994E-1,5.648999810E-1
8.473459451E0,-1.185899973E0,5.902000070E-1,-8.617999554E-1
8.493311014E0,-8.733999729E-1,1.704100013E0,-1.846300006E0
8.513164139E0,-8.800999522E-1,2.980499983E0,-3.111799955E0
8.533017264E0,-9.654999971E-1,2.994699955E0,-3.754899979E0
8.552868826E0,2.360000014E-1,1.657099962E0,-2.065199852E0
8.572721951E0,5.238000154E-1,5.350999832E-1,7.544999719E-1
8.592575076E0,8.560000062E-1,3.100000024E-1,4.696799755E0
8.612428201E0,1.059999943E0,-9.879999608E-2,7.781399727E0
8.632279764E0,2.700999975E-1,-2.011600018E0,4.145800114E0
8.652132889E0,-7.493000031E-1,-4.598000050E0,-1.512499928E0
8.671986014E0,-2.053999901E0,-7.929399967E0,-4.184899807E0
8.691839139E0,-1.723099947E0,-9.710499763E0,-4.071199894E0
8.711690701E0,1.867100000E0,-7.793399811E0,-1.531199932E0
8.731543826E0,5.016499996E0,-6.077399731E0,2.182999998E-1
8.751396951E0,5.272399902E0,-5.914299965E0,6.780000031E-2
8.771248514E0,3.386699915E0,-4.436299801E0,5.579000115E-1
8.791101639E0,2.978899956E0,-4.788099766E0,-2.547999918E-1
8.810954764E0,1.285599947E0,-1.849599957E0,-2.602399826E0
8.830806326E0,-7.171999812E-1,-6.446999907E-1,-1.498099923E0
8.850659451E0,-4.046999812E-1,7.360000163E-2,2.789999843E-1
8.870512576E0,-4.263999760E-1,4.405999780E-1,1.248899937E0
8.890364139E0,-1.193499923E0,5.066999793E-1,7.226999998E-1
8.910217264E0,-2.153699875E0,9.150999784E-1,-5.072999597E-1
8.930070389E0,-2.051599979E0,8.960999846E-1,-4.493999779E-1
8.949923514E0,-9.662999511E-1,1.557399988E0,4.256999791E-1
8.969775076E0,4.725999832E-1,2.366299868E0,1.054899931E0
8.989626639E0,9.926999807E-1,3.400499821E0,1.066599965E0
9.009479764E0,1.027300000E0,5.494999886E0,9.918999672E-1
9.029332889E0,4.903999865E-1,6.470499992E0,7.254999876E-1
9.049184451E0,-1.194499969E0,5.922100067E0,1.987999976E-1
9.069037576E0,-2.596400023E0,4.836800098E0,-5.065000057E-1
9.088896951E0,-3.212999821E0,3.561499834E0,-8.630999923E-1
9.108743826E0,-3.076599836E0,2.747200012E0,-5.756999850E-1
9.128596951E0,-1.922999978E0,1.608599901E0,5.291999578E-1
9.148448514E0,-5.137999654E-1,-4.580000043E-2,1.638499975E0
9.168300076E0,1.819000006E0,-2.510399818E0,3.055599928E0
9.188153201E0,4.663599968E0,-5.595499992E0,4.330100060E0
9.208007889E0,8.988200188E0,-1.379249954E1,1.350099921E0
9.227859451E0,6.886699677E0,-2.048600006E1,-7.588999748E0
9.247712576E0,-2.974999905E0,-8.374899864E0,-7.813699722E0
9.267565701E0,-6.971899986E0,8.863999844E-1,-9.021399498E0
9.287417264E0,-4.789199829E0,3.452399969E0,-5.870199680E0
9.307270389E0,-1.018800020E0,2.230999917E-1,-2.892199993E0
9.327121951E0,1.147799969E0,-5.497799873E0,-1.542799950E0
9.346975076E0,7.584999800E-1,-7.103600025E0,9.589999914E-1
9.366828201E0,1.284999996E-1,-4.794499874E0,2.404899836E0
9.386679764E0,-8.743000031E-1,-1.199399948E0,4.934999943E0
9.406532889E0,-3.129000068E-1,1.321200013E0,4.513499737E0
9.426386014E0,2.987999916E-1,1.856999993E0,1.184899926E0
9.446239139E0,6.676999927E-1,1.074299932E0,-1.652899981E0
9.466090701E0,4.100999832E-1,7.943999767E-1,-3.165799856E0
9.485943826E0,3.400000036E-1,1.224900007E0,-3.562699795E0
9.505803201E0,-4.979999736E-2,1.228600025E0,-1.348899961E0
9.525648514E0,-7.639999986E-1,4.036999941E-1,1.117599964E0
9.545501639E0,-2.760200024E0,-2.302599907E0,5.552000046E0
9.565354764E0,-5.474899769E0,-3.252699852E0,8.151899338E0
9.585212576E0,-3.151299953E0,-2.441299915E0,4.466799736E0
9.605059451E0,-1.028999984E-1,-2.000400066E0,9.301999807E-1
9.624912576E0,2.601599932E0,-2.455699921E0,-1.065500021E0
9.644770389E0,4.293200016E0,-1.948799968E0,-1.759400010E0
9.664617264E0,5.098999977E0,-1.152799964E0,7.814999819E-1
9.684470389E0,5.790899754E0,-9.153999686E-1,3.122599840E0
9.704323514E0,5.063799858E0,-6.376000047E-1,2.887899876E0
9.724175076E0,1.751199961E0,-1.552299976E0,2.156399965E0
9.744028201E0,-4.076499939E0,-6.189899921E0,-1.685199976E0
9.763881326E0,-9.274099350E0,-8.511799812E0,-5.127699852E0
9.783732889E0,-7.256499767E0,-1.002779961E1,-6.867599964E0
9.803586014E0,-1.216099977E0,-1.031680012E1,-6.782599926E0
9.823439139E0,9.371999502E-1,-1.075139999E1,-2.608999968E0
9.843292264E0,1.310599923E0,-1.276949978E1,1.182199955E0
9.863143826E0,-2.985999882E-1,-1.135569954E1,2.338500023E0
9.882996951E0,-2.743399858E0,-7.373099804E0,2.177500010E0
9.902848514E0,-3.810099840E0,-4.295300007E0,2.488699913E0
9.922701639E0,-4.182600021E0,-2.886899948E0,1.931499958E0
9.942554764E0,-2.831499815E0,-7.671999931E-1,-2.456999868E-1
9.962406326E0,-3.218999803E-1,2.433199883E0,-2.833699942E0
9.982259451E0,2.882699966E0,5.368099689E0,-4.853899956E0
1.000211101E1,5.805299759E0,6.717000008E0,-4.456999779E0
1.002196414E1,6.190599918E0,5.460799694E0,-5.503000021E-1
1.004181883E1,3.686999798E0,2.072799921E0,2.630499840E0
1.006167039E1,7.531999946E-1,6.086999774E-1,4.593699932E0
1.008152351E1,1.055999994E-1,1.533399940E0,5.242399693E0
1.010137508E1,-1.773000002E0,2.353299856E0,5.206999779E0
1.012122820E1,-4.544399738E0,2.274600029E0,4.898299694E0
1.014108133E1,-6.322700024E0,1.649999976E0,3.454499960E0
1.016093289E1,-6.928299904E0,7.511000037E-1,2.081500053E0
1.018078601E1,-5.847799778E0,-9.619999677E-2,1.970399976E0
1.020063758E1,-5.145599842E0,-2.007400036E0,3.591899872E0
1.022049226E1,-5.471499920E0,-5.772999763E0,7.628099918E0
1.024034383E1,-1.833099961E0,-1.203769970E1,-8.906999826E-1
1.026019695E1,7.692999840E0,-3.457749939E1,-7.756899834E0
1.028005476E1,-1.756799936E0,-1.587259960E1,-4.176599979E0
1.029990320E1,6.941999793E-1,1.686800003E0,-7.506399632E0
1.031975476E1,1.662999988E-1,8.134499550E0,-7.997099876E0
1.033960633E1,8.297999501E-1,4.101200104E0,-7.341199875E0
1.035945945E1,3.388399839E0,-2.807600021E0,-1.607499957E0
1.037931258E1,3.858999908E-1,-7.243700027E0,3.389499903E0
1.039916570E1,-1.924999952E-1,-5.573999882E0,2.864699841E0
1.041901883E1,2.049299955E0,-7.285999656E-1,5.097300053E0
1.043887039E1,3.239199877E0,2.489599943E0,3.622799873E0
1.045872195E1,3.341899872E0,3.737999916E0,3.109299898E0
1.047857508E1,2.626999915E-1,2.764999866E0,2.928799868E0
1.049842820E1,-3.636299849E0,1.420000009E-2,4.649999738E-2
1.051828133E1,-5.213699818E0,-1.243799925E0,-2.104300022E0
1.053813445E1,-3.866899967E0,-6.994000077E-1,-3.101899862E0
1.055798601E1,-1.485700011E0,5.809000134E-1,-2.362599850E0
1.057783914E1,7.389999628E-1,1.533599973E0,-1.279199958E0
1.059769070E1,1.533699989E0,1.254499912E0,-4.828999937E-1
1.061754383E1,9.989999533E-1,-2.937999964E-1,6.153999567E-1
1.063739695E1,-7.239999622E-2,-1.665199995E0,2.564800024E0
1.065724851E1,-5.852999687E-1,-2.007099867E0,4.114999771E0
1.067710164E1,-3.537999988E-1,-2.177299976E0,1.885999918E0
1.069695476E1,-7.271999717E-1,-3.221499920E0,-2.584399939E0
1.071680789E1,-1.148699999E0,-5.612099648E0,-4.716300011E0
1.073665945E1,-1.211099982E0,-6.352099895E0,-3.386699915E0
1.075651258E1,-1.042999998E-1,-3.665599823E0,-9.041999578E-1
1.077636570E1,2.497400045E0,-1.483099937E0,2.209800005E0
1.079621883E1,3.809099913E0,-1.123799920E0,3.434700012E0
1.081607039E1,3.307299852E0,-2.412099838E0,2.535199881E0
1.083592351E1,1.898000002E0,-3.886199951E0,1.527799964E0
1.085577664E1,7.001000047E-1,-3.629199982E0,-9.619999677E-2
1.087562820E1,-1.767999977E-1,-1.600199938E0,-1.588199973E0
1.089548133E1,-1.585299969E0,2.870000005E-1,-3.332700014E0
1.091533445E1,-1.493999958E0,6.025999784E-1,-2.868700027E0
1.093518601E1,-9.217999578E-1,9.296999574E-1,-9.343999624E-1
1.095503914E1,-3.957999945E-1,8.514999747E-1,6.909999847E-1
1.097489851E1,6.931999922E-1,8.276999593E-1,1.951200008E0
1.099474539E1,2.483000010E-1,7.918999791E-1,2.061199903E0
1.101459695E1,-1.083599925E0,-1.973000020E-1,2.148000002E0
1.103445008E1,-1.457099915E0,-8.789999485E-1,1.359599948E0
1.105430164E1,-1.000599980E0,-7.560999990E-1,8.693000078E-1
1.107415476E1,3.460000083E-2,-1.970000006E-2,4.605999887E-1
1.109400789E1,1.146600008E0,1.150599957E0,-3.989999741E-2
1.111386101E1,1.819399953E0,2.587199926E0,-3.492999971E-1
1.113371258E1,1.761299968E0,3.528800011E0,-5.662999749E-1
1.115356570E1,1.170199990E0,3.838699818E0,-6.733999848E-1
1.117341883E1,-1.216999963E-1,3.955899954E0,-7.023999691E-1
1.119327195E1,-1.539199948E0,4.190799713E0,-6.627999544E-1
1.121312351E1,-2.658999920E0,4.288399696E0,-6.935999990E-1
1.123297664E1,-3.156399965E0,3.960999966E0,-8.725000024E-1
1.125282976E1,-2.875099897E0,3.165999889E0,-8.200999498E-1
1.127268133E1,-2.444399834E0,2.323899984E0,3.009999916E-2
1.129253445E1,-2.340600014E0,1.177999973E0,1.373399973E0
1.131238758E1,-3.166599989E0,-2.939999998E-1,3.269399881E0
1.133224070E1,-4.250899792E0,-3.284099817E0,5.196399689E0
1.135209226E1,-2.459800005E0,-1.024009991E1,1.587799907E0
1.137194539E1,7.534299850E0,-2.671220016E1,-5.099299908E0
1.139179851E1,2.553200006E0,-2.670489883E1,-3.624699831E0
1.141165008E1,6.637499809E0,-5.823100090E0,-9.668999672E0
1.143150320E1,5.132499695E0,5.779900074E0,-3.499099970E0
1.145135633E1,8.137999773E-1,1.048479939E1,-1.850099921E0
1.147120789E1,1.338500023E0,5.141799927E0,-6.663599968E0
1.149106101E1,1.307199955E0,-4.831599712E0,-3.054299831E0
1.151091414E1,-5.030999780E-1,-8.198699951E0,1.741999984E-1
1.153076570E1,-4.806999862E-1,-7.346799850E0,2.665599823E0
1.155061883E1,-2.277999878E0,-4.291800022E0,4.851599693E0
1.157047195E1,-4.050300121E0,-9.267999530E-1,5.910799980E0
1.159032976E1,-3.847999811E0,1.494199991E0,2.778100014E0
1.161017508E1,-3.018699884E0,2.038800001E0,-1.058799982E0
1.163002976E1,-1.476999998E0,7.939999700E-1,-2.818399906E0
1.164988289E1,1.068099976E0,-4.135999978E-1,-1.995799899E0
1.166974070E1,1.801699996E0,-8.913999796E-1,-6.017999649E-1
1.168958758E1,1.392199993E0,-9.257999659E-1,1.221799970E0
1.170944070E1,2.579999901E-2,-1.240100026E0,2.351599932E0
1.172929851E1,2.021999955E-1,-8.235999942E-1,2.357399940E0
1.174914539E1,5.511999726E-1,5.662999749E-1,5.547999740E-1
1.176899851E1,1.794600010E0,1.143399954E0,-1.361099958E0
1.178885008E1,2.598700047E0,1.718999892E-1,-1.548999906E0
1.180870164E1,2.384099960E0,-1.000900030E0,-2.202999890E-1
1.182855633E1,1.605099916E0,-1.804600000E0,2.224799871E0
1.184840789E1,8.671000004E-1,-2.136600018E0,3.124599934E0
1.186826101E1,-1.429999992E-2,-1.706599951E0,1.159799933E0
1.188811414E1,-1.301100016E0,-1.976399899E0,-4.793999791E-1
1.190796726E1,-2.776899815E0,-3.330199957E0,-1.153699994E0
1.192782039E1,-4.762099743E0,-4.494199753E0,-1.603999972E0
1.194767195E1,-4.824800014E0,-5.678799629E0,-7.871999741E-1
1.196752508E1,-2.163699865E0,-6.571199894E0,-4.546999931E-1
1.198737664E1,1.886899948E0,-5.847399712E0,-1.667400002E0
1.200722976E1,5.193500042E0,-4.884900093E0,-2.993000031E0
1.202708133E1,4.945699692E0,-4.901999950E0,-2.908399820E0
1.204693445E1,3.705099821E0,-4.029200077E0,7.576000094E-1
1.206678758E1,5.206999779E0,-3.339099884E0,1.583099961E0
1.208664070E1,2.811499834E0,-1.362599969E0,1.006699920E0
1.210649226E1,-7.805999517E-1,-9.279999882E-2,7.328999639E-1
1.212634539E1,-3.698499918E0,-2.739000022E-1,6.644999981E-1
1.214620320E1,-4.463099957E0,-8.860999942E-1,5.249999836E-2
1.216605008E1,-2.948499918E0,-1.150399923E0,-5.640000105E-1
1.218590320E1,-7.515000105E-1,-1.305199981E0,-8.267999887E-1
1.220575633E1,9.580999613E-1,-5.561999679E-1,-6.086999774E-1
1.222560789E1,1.558599949E0,6.700000167E-2,6.439999491E-2
1.224546101E1,1.799099922E0,2.044299841E0,3.443000019E-1
1.226531414E1,1.694199920E0,4.023200035E0,6.553999782E-1
1.228517195E1,1.180199981E0,5.832699776E0,4.725999832E-1
1.230501883E1,-3.427000046E-1,6.702199936E0,6.370999813E-1
1.232487195E1,-2.895900011E0,6.667199612E0,5.604999661E-1
1.234472508E1,-4.939799786E0,5.331999779E0,4.669999704E-2
1.236458289E1,-4.970200062E0,3.381500006E0,1.206000000E-1
1.238442976E1,-3.466799974E0,2.037199974E0,2.060000040E-2
1.240428289E1,-2.690099955E0,1.434899926E0,4.217000008E-1
1.242413445E1,-1.398499966E0,1.790499926E0,1.195999980E-1
1.244398758E1,-6.383000016E-1,5.680999756E-1,-1.576299906E0
1.246384070E1,9.481699944E0,-7.475699902E0,6.765399933E0
1.248369226E1,1.207899952E1,-2.255780029E1,-2.865200043E0
1.250354539E1,7.115499973E0,-2.978949928E1,-5.975100040E0
1.252339695E1,-3.292999983E0,-9.181499481E0,-5.940299988E0
1.254325164E1,-8.257399559E0,4.473199844E0,-5.669600010E0
1.256310320E1,-6.774199963E0,6.554399967E0,-3.361199856E0
1.258295633E1,-3.567000031E-1,2.230000019E0,-3.155799866E0
1.260280945E1,4.319699764E0,-4.007499695E0,-1.496399999E0
1.262266101E1,1.870199919E0,-7.700799942E0,1.292500019E0
1.264251414E1,1.025099993E0,-4.936500072E0,3.210199833E0
1.266236726E1,5.264999866E-1,-8.199999928E-1,3.685899973E0
1.268222039E1,1.039000005E-1,1.829999924E0,2.021999836E0
1.270207820E1,2.076999992E-1,2.335199833E0,7.429999858E-2
1.272192508E1,9.999999747E-5,1.917199969E0,-4.396999776E-1
1.274177664E1,-2.913999856E-1,1.221899986E0,1.710999906E-1
1.276162976E1,-5.673999786E-1,5.034999847E-1,7.649999857E-1
1.278148289E1,-4.521999955E-1,2.336999923E-1,8.592000008E-1
1.280133601E1,-7.615999579E-1,-7.440000027E-2,6.674000025E-1
1.282118758E1,-1.199499965E0,-3.944999874E-1,2.199999988E-3
1.284104695E1,-1.294199944E0,-5.877999663E-1,-5.645999908E-1
1.286089383E1,-7.181999683E-1,-8.639000058E-1,-9.616999626E-1
1.288074539E1,-9.599999525E-3,-1.084599972E0,-5.849999785E-1
1.290059851E1,6.542999744E-1,-1.476999968E-1,4.968999922E-1
1.292045164E1,8.255999684E-1,1.133599997E0,1.650999904E0
1.294030476E1,8.269000053E-1,8.309999704E-1,1.058200002E0
1.296015633E1,1.184800029E0,-5.645999908E-1,-7.580999732E-1
1.298000945E1,9.824999571E-1,-1.494699955E0,-9.526999593E-1
1.299986258E1,1.084999919E0,-1.767399907E0,5.119999647E-1
1.301971414E1,8.922999501E-1,-1.414299965E0,2.468600035E0
1.303956726E1,-6.972999573E-1,-1.241099954E0,2.748999834E0
1.305942508E1,-3.299299955E0,-1.833199978E0,-1.292999983E-1
1.307927195E1,-4.040299892E0,-4.233099937E0,-1.924600005E0
1.309912508E1,-3.159099817E0,-5.656699657E0,-1.726999998E0
1.311897820E1,-1.750199914E0,-4.577499866E0,-6.873999834E-1
1.313883133E1,1.774999946E-1,-4.201900005E0,-1.443300009E0
1.315868289E1,3.223799944E0,-3.560699940E0,-1.644299984E0
1.317853601E1,5.254699707E0,-2.616600037E0,-2.308999896E-1
1.319838758E1,4.101900101E0,-2.924000025E0,-5.907999873E-1
1.321824070E1,2.692299843E0,-3.434499979E0,-1.514799953E0
1.323809383E1,2.538999915E-1,-2.045899868E0,-7.349999547E-1
1.325794539E1,-2.471999884E0,-1.476999968E-1,4.801999927E-1
1.327779851E1,-2.964200020E0,1.897999942E-1,1.021600008E0
1.329765008E1,-2.510900021E0,-2.011999935E-1,1.015699983E0
1.331750320E1,-1.622200012E0,-2.593999803E-1,6.958999634E-1
1.333735633E1,-5.195999742E-1,-5.432999730E-1,-4.609999806E-2
1.335720945E1,5.859000087E-1,-5.261999965E-1,-7.404999733E-1
1.337706101E1,1.077600002E0,-2.838000059E-1,-8.136000037E-1
1.339691414E1,1.402899981E0,-2.439999953E-2,-6.000999808E-1
1.341676726E1,1.360000014E0,1.100999936E-1,-3.096999824E-1
1.343662039E1,1.415300012E0,4.555999935E-1,3.587999940E-1
1.345647195E1,1.282799959E0,1.166299939E0,7.742999792E-1
1.347632508E1,9.508000016E-1,2.307999849E0,8.815000057E-1
1.349617820E1,8.646999598E-1,3.445099831E0,9.971999526E-1
1.351602976E1,-2.499999944E-3,4.221899986E0,9.391999841E-1
1.353588289E1,-1.148999929E0,4.726500034E0,6.377999783E-1
1.355573601E1,-2.404700041E0,4.025000095E0,2.524999976E-1
1.357558758E1,-3.003099918E0,2.497599840E0,-5.729999766E-2
1.359544070E1,-2.688999891E0,1.453299999E0,-3.382999897E-1
1.361529383E1,-2.140499830E0,8.592000008E-1,9.454999566E-1
1.363514539E1,-1.359499931E0,1.028999984E-1,3.051899910E0
1.365499851E1,-2.136600018E0,-1.328599930E0,4.299200058E0
1.367485164E1,-4.205599785E0,-2.621899843E0,3.237699986E0
1.369470476E1,-5.149399757E0,-3.550799847E0,3.000999928E0
1.371455633E1,-2.811499834E0,-5.815999985E0,1.172399998E0
1.373440945E1,2.171799898E0,-1.135190010E1,-4.295599937E0
1.375426883E1,5.545799732E0,-1.430099964E1,-4.153100014E0
1.377411414E1,3.429799795E0,-6.741600037E0,-1.924600005E0
1.379396726E1,3.883499861E0,2.868999839E-1,-4.507499695E0
1.381382664E1,1.637599945E0,3.705199957E0,-1.709899902E0
1.383367351E1,1.697999954E0,-1.533999890E-1,-1.508399963E0
1.385352508E1,7.260999680E-1,-5.301199913E0,-2.312999964E0
1.387337820E1,-5.370000005E-1,-6.080800056E0,-7.401999831E-1
1.389323133E1,-7.501999736E-1,-3.149199963E0,1.934299946E0
1.391308289E1,-4.988999963E-1,1.533999890E-1,4.623600006E0
1.393293601E1,7.392999530E-1,1.768099904E0,2.670300007E0
1.395279539E1,4.009999931E-1,1.546599984E0,-4.765999913E-1
1.397264070E1,-1.608899951E0,1.846799970E0,-1.298699975E0
1.399249383E1,-2.973599911E0,2.160599947E0,-2.640999854E-1
1.401234695E1,-3.005599976E0,1.970699906E0,1.261099935E0
1.403219851E1,-1.712000012E0,1.168099999E0,1.674499989E0
1.405205164E1,-1.415999979E-1,-2.360000014E-1,7.227999568E-1
1.407190476E1,1.308099985E0,-1.837700009E0,-4.910000041E-2
1.409175789E1,2.095000029E0,-2.379799843E0,-4.632000029E-1
1.411160945E1,2.042500019E0,-1.627399921E0,-1.162500024E0
1.413146258E1,1.059299946E0,-6.390999556E-1,-1.218899965E0
1.415131570E1,-2.089999989E-2,-3.127999902E-1,-8.892999887E-1
1.417116726E1,-4.897999763E-1,-5.900999904E-1,8.509999514E-2
1.419102039E1,-2.976999879E-1,-7.500999570E-1,4.760999978E-1
1.421087351E1,4.016999900E-1,-4.025000036E-1,2.718999982E-1
1.423072508E1,6.657999754E-1,2.779999971E-1,-2.714000046E-1
1.425057820E1,3.687999845E-1,4.731999934E-1,-6.326999664E-1
1.427043133E1,-1.300000004E-3,2.698999941E-1,-3.876000047E-1
1.429028445E1,-7.029999793E-2,-1.533999890E-1,1.567000002E-1
1.431013601E1,-1.365000010E-1,-2.144999951E-1,6.714999676E-1
1.432998914E1,-2.195999920E-1,-1.744999886E-1,7.738999724E-1
1.434984226E1,-3.585000038E-1,-2.824999988E-1,5.625000000E-1
1.436969383E1,-3.537999988E-1,-2.881999910E-1,1.968999952E-1
1.438954695E1,-3.574999869E-1,1.739999950E-1,-6.078000069E-1
1.440940008E1,1.749999970E-1,4.111999869E-1,-1.058099985E0
1.442925164E1,6.493999958E-1,4.499999881E-1,-6.675999761E-1
1.444910945E1,9.380000085E-2,7.832999825E-1,-9.690000117E-2
1.446895789E1,-6.820999980E-1,6.516999602E-1,1.412999928E-1
1.448880945E1,-1.539600015E0,4.892999828E-1,-5.149999857E-1
1.450866258E1,-1.908699989E0,-5.904999971E-1,-5.306999683E-1
1.452851570E1,-7.346000075E-1,-2.302999973E0,-5.052999854E-1
1.454836726E1,1.333899975E0,-2.511399984E0,-1.315500021E0
1.456822039E1,3.760200024E0,-1.355499983E0,-4.914999902E-1
1.458807195E1,6.906499863E0,1.144699931E0,3.460299969E0
1.460792508E1,6.577499866E0,2.508800030E0,7.088299751E0
1.462777820E1,3.081899881E0,-1.331900001E0,8.271699905E0
1.464763133E1,1.069199920E0,-9.734000206E0,5.341399670E0
1.466748289E1,2.425600052E0,-9.241399765E0,3.366199970E0
1.468733601E1,1.712000012E0,-4.777499676E0,7.182999849E-1
1.470718914E1,-8.959999681E-2,-6.983999610E-1,-2.529999912E-1
1.472704070E1,-2.493299961E0,2.394199848E0,-6.430999637E-1
1.474689383E1,-3.454499960E0,5.177899837E0,4.530999959E-1
1.476674695E1,-3.891599894E0,5.693899632E0,1.116699934E0
1.478659851E1,-2.089400053E0,3.980700016E0,-1.945499897E0
1.480645164E1,-3.808999956E-1,2.285099983E0,-6.931399822E0
1.482630476E1,2.320999861E0,8.228999972E-1,-8.342299461E0
1.484615789E1,3.519899845E0,1.263000011E0,-5.870299816E0
1.486600945E1,2.672199965E0,1.640299916E0,-1.576299906E0
1.488586258E1,1.410099983E0,-3.026999831E-1,1.631699920E0
1.490571570E1,7.797999978E-1,-2.575099945E0,2.352699995E0
1.492556726E1,1.170699954E0,-4.109200001E0,1.907399893E0
1.494542039E1,1.078699946E0,-2.984999895E0,1.123499990E0
1.496527351E1,5.126000047E-1,-2.002500057E0,-1.499999966E-2
1.498512508E1,6.354999542E-1,-1.457099915E0,-4.936999977E-1
1.500497820E1,7.063999772E-1,-1.240199924E0,-3.560999930E-1
1.502483133E1,3.533999920E-1,-9.921000004E-1,1.806999892E-1
1.504468445E1,-2.866999805E-1,-7.052999735E-1,5.694000125E-1
1.506453601E1,-6.222999692E-1,-9.204999804E-1,1.012899995E0
1.508438914E1,-6.721999645E-1,-1.099900007E0,6.599000096E-1
1.510424226E1,-2.585999966E-1,-1.105799913E0,3.789999783E-1
1.512409383E1,2.219999880E-1,-9.891999960E-1,-7.449999452E-2
1.514394695E1,4.109999835E-1,-9.238999486E-1,-4.996999800E-1
1.516380008E1,4.106999934E-1,-9.914999604E-1,-3.396999836E-1
1.518365164E1,6.819999963E-2,-9.567999840E-1,-5.559999868E-2
1.520350476E1,-2.674999833E-1,-8.285999894E-1,3.971000016E-1
1.522335789E1,-3.709000051E-1,-7.343999743E-1,5.511000156E-1
1.524321101E1,-3.210999966E-1,-4.598999918E-1,5.758999586E-1
1.526306258E1,-1.391000003E-1,-3.784999847E-1,4.724999964E-1
1.528291570E1,1.085999981E-1,-2.954999804E-1,3.906999826E-1
1.530276883E1,1.509999931E-1,-8.929999918E-2,1.145999953E-1
1.532262195E1,2.082999945E-1,-1.182999983E-1,-6.019999832E-2
1.534247351E1,4.199999850E-3,-1.449999958E-1,-1.274999976E-1
1.536232664E1,-5.829999968E-2,-2.073999941E-1,1.160999984E-1
1.538217976E1,-2.241999954E-1,-1.476999968E-1,1.481000036E-1
1.540203133E1,-3.263999820E-1,-1.340999901E-1,3.413999975E-1
1.542188445E1,-2.162999958E-1,-1.142999977E-1,4.481999874E-1
1.544173758E1,-4.104000032E-1,-2.043000013E-1,3.976999819E-1
1.546158758E1,-4.560999870E-1,-3.606999815E-1,3.461999893E-1
1.548144226E1,-3.773999810E-1,-2.985999882E-1,2.556000054E-1
1.550129539E1,-3.989999890E-1,-2.143999934E-1,4.349999875E-2
1.552114695E1,-3.847000003E-1,-3.391999900E-1,1.711999923E-1
1.554100008E1,-5.541999936E-1,-5.299000144E-1,6.777999997E-1
1.556085320E1,-7.091000080E-1,-1.210699916E0,1.261699915E0
1.558070633E1,-4.386999905E-1,-2.323299885E0,1.668499947E0
1.560055789E1,-2.359999903E-2,-2.888799906E0,1.562600017E0
1.562041101E1,6.732999682E-1,-2.718099833E0,7.198999524E-1
1.564026414E1,1.274999976E0,-1.674099922E0,2.129999921E-2
1.566011570E1,1.247399926E0,1.686999947E-1,6.700000167E-2
1.567996726E1,7.041999698E-1,1.100099921E0,-7.707999945E-1
1.569982195E1,4.859999940E-2,3.992499828E0,-1.798900008E0
1.571967351E1,-7.558999658E-1,5.821599960E0,-2.494699955E0
1.573952664E1,-1.603099942E0,7.144000053E0,-2.803999901E0
1.575937976E1,-1.631299973E0,7.901199818E0,-3.112900019E0
1.577923133E1,-3.247999847E-1,7.838899612E0,-4.272799969E0
1.579908445E1,2.328999996E0,4.804199696E0,-5.310999870E0
1.581893758E1,3.826299906E0,1.104200006E0,-4.416999817E0
1.583878914E1,5.377899647E0,-2.020400047E0,-9.659999609E-1
1.585864226E1,5.840799809E0,-2.067329979E1,3.749020004E1
1.587849539E1,8.892199516E0,-4.319479752E1,-1.717289925E1
1.589834695E1,9.414699554E0,-1.033269978E1,1.911499977E0
1.591820008E1,2.245599985E0,8.433899879E0,1.188499928E0
1.593805320E1,-6.358000040E-1,8.992400169E0,-1.273339939E1
1.595790476E1,2.982300043E0,-9.817000031E-1,-9.942099571E0
1.597775789E1,6.510999799E-1,-1.106449986E1,-4.277599812E0
1.599761101E1,-3.774599791E0,-1.524449921E1,4.718499660E0
1.601746258E1,-4.210700035E0,-1.176550007E1,3.993699789E0
1.603731570E1,-3.557799816E0,-5.614599705E0,2.006500006E0
1.605716883E1,-7.971999645E-1,-1.319000006E0,7.057999969E-1
1.607702039E1,2.688999891E0,7.428999543E-1,6.669999659E-2
1.609687351E1,4.945499897E0,2.690999985E0,3.737999797E-1
1.611672664E1,5.274399757E0,3.712499857E0,2.967000008E-1
1.613657820E1,1.341899991E0,3.567099810E0,-1.351300001E0
1.615643133E1,-3.571199894E0,1.917199969E0,-2.932099819E0
1.617629070E1,-7.100800037E0,4.299999680E-3,-2.166699886E0
1.619613758E1,-7.267999649E0,-6.617999673E-1,1.386999935E-1
1.621598914E1,-5.240399837E0,-8.980000019E-1,2.872299910E0
1.623584226E1,-2.488899946E0,9.529999644E-2,4.537799835E0
1.625569539E1,8.532999754E-1,9.260999560E-1,4.246399879E0
1.627554695E1,3.993099928E0,1.921999902E-1,3.110100031E0
1.629540008E1,5.330899715E0,-1.802999973E-1,2.107899904E0
1.631525320E1,4.788700104E0,-6.079999804E-1,7.319999933E-1
1.633510633E1,2.872200012E0,-1.278499961E0,2.428999990E-1
1.635495789E1,5.600000024E-1,-2.137699842E0,1.373199940E0
1.637481101E1,-2.382699966E0,-4.964200020E0,2.669999897E-1
1.639466414E1,-5.353399754E0,-6.694799900E0,-2.659999847E0
1.641451570E1,-3.066699982E0,-7.946399689E0,-5.526899815E0
1.643436883E1,1.911499977E0,-7.509099960E0,-4.994699955E0
1.645422664E1,4.236400127E0,-8.281299591E0,-2.100299835E0
1.647407351E1,2.897899866E0,-8.536000252E0,4.268999994E-1
1.649392664E1,2.115599871E0,-7.702199936E0,5.949999690E-1
1.651377976E1,9.928999543E-1,-6.314300060E0,3.704999983E-1
1.653363289E1,-5.522999763E-1,-4.964499950E0,1.867000014E-1
1.655348445E1,-1.237399936E0,-3.974399805E0,3.508999944E-1
1.657333758E1,-1.548999906E0,-2.784099817E0,9.004999995E-1
1.659319539E1,-1.111899972E0,-1.307799935E0,7.962999940E-1
1.661304226E1,2.158999890E-1,-4.269999862E-1,3.790999949E-1
1.663289539E1,1.163200021E0,2.170999944E-1,-4.714999795E-1
1.665274851E1,1.153599977E0,1.602399945E0,-9.600999951E-1
1.667260008E1,9.070999622E-1,3.525499821E0,-9.950999618E-1
1.669245320E1,3.015999794E-1,5.541999817E0,-5.029999614E-1
1.671230633E1,-8.018999696E-1,6.832699776E0,2.620999813E-1
1.673215789E1,-1.718099952E0,8.502799988E0,1.238499999E0
1.675201101E1,-3.256699800E0,8.660799980E0,1.861799955E0
1.677186414E1,-6.278100014E0,7.144399643E0,3.102999926E0
1.679171726E1,-8.457799911E0,1.579899907E0,-1.992999911E-1
1.681156883E1,-3.637499809E0,-1.876299977E0,-1.057600021E0
1.683142195E1,-1.695500016E0,-3.090799809E0,1.763999939E0
1.685127508E1,9.783999920E-1,-4.122299671E0,3.298300028E0
1.687112664E1,5.123099804E0,-7.635200024E0,8.917499542E0
1.689097976E1,1.202709961E1,-1.543199921E1,-1.515000015E-1
1.691083289E1,1.016609955E1,-2.229640007E1,-9.145099640E0
1.693068601E1,-2.787299871E0,-6.100899696E0,-1.281709957E1
1.695053758E1,-9.016900063E0,3.822999954E0,-1.996299982E0
1.697039070E1,-7.362199783E0,-9.686999917E-1,-2.116899967E0
1.699024383E1,-1.703899980E0,-8.099599838E0,-3.432799816E0
1.701009539E1,1.699399948E0,-1.371729946E1,1.769599915E0
1.702994851E1,4.139599800E0,-9.234700203E0,2.772500038E0
1.704980164E1,3.896600008E0,-3.543399811E0,5.857999921E-1
1.706965320E1,2.346099854E0,2.167999893E-1,-5.036999583E-1
1.708950476E1,9.667999744E-1,2.579200029E0,-6.481999755E-1
1.710935945E1,4.275999963E-1,2.989899874E0,-1.673000008E-1
1.712921101E1,6.069999933E-2,2.009000063E0,2.328999937E-1
1.714906414E1,-2.338999957E-1,1.210999966E0,5.411999822E-1
1.716891726E1,-1.594499946E0,9.075999856E-1,6.474999785E-1
1.718876883E1,-2.519799948E0,1.010399938E0,9.869999886E-1
1.720862195E1,-2.338999987E0,1.120299935E0,2.500499964E0
1.722847351E1,-2.558699846E0,7.507999539E-1,3.486899853E0
1.724832664E1,-2.281299829E0,8.062999845E-1,2.243799925E0
1.726817976E1,-1.165699959E0,1.347100019E0,-1.093899965E0
1.728803133E1,4.988999963E-1,9.583999515E-1,-2.545300007E0
1.730788445E1,2.340299845E0,-4.140000045E-2,-1.327700019E0
1.732773758E1,2.725100040E0,-1.541399956E0,1.292299986E0
1.734759070E1,1.107999921E0,-3.396399975E0,4.572400093E0
1.736744226E1,-3.539999947E-2,-5.214099884E0,3.880599976E0
1.738729539E1,-6.333999634E-1,-6.437399864E0,-1.924999952E-1
1.740714851E1,-1.794199944E0,-6.905399799E0,-2.789399862E0
1.742700008E1,-2.933199883E0,-6.190599918E0,-4.088999748E0
1.744685320E1,-1.075600028E0,-4.897599697E0,-4.786900043E0
1.746670633E1,2.552700043E0,-3.530499935E0,-1.658100009E0
1.748655945E1,4.132199764E0,-2.379400015E0,8.355000019E-1
1.750641101E1,2.201099873E0,-2.853699923E0,1.631999969E0
1.752626414E1,-2.184999883E-1,-3.715299845E0,9.168999791E-1
1.754611726E1,-3.010399818E0,-1.518599987E0,2.044999897E-1
1.756596883E1,-2.826099873E0,4.860000014E-1,-1.099900007E0
1.758582195E1,-5.352999568E-1,7.716999650E-1,-5.410999656E-1
1.760567351E1,1.757900000E0,-1.196999997E-1,-4.591999948E-1
1.762552664E1,1.367799997E0,-3.869999945E-1,1.244999990E-1
1.764537976E1,3.430999815E-1,-7.713999748E-1,1.024999991E-1
1.766523289E1,-3.610000014E-2,-1.065099955E0,8.449999988E-2
1.768508601E1,2.107999921E-1,-6.511999965E-1,5.267999768E-1
1.770493758E1,5.399999619E-1,-1.083999947E-1,8.655999899E-1
1.772479070E1,7.928999662E-1,1.086599946E0,1.047500014E0
1.774464383E1,8.537999988E-1,1.908100009E0,8.300999999E-1
1.776449539E1,1.226699948E0,2.903299809E0,2.804999948E-1
1.778434851E1,1.139299989E0,3.532999992E0,-2.377999872E-1
1.780420164E1,3.111999929E-1,3.768699884E0,-5.067999959E-1
1.782405320E1,-9.728999734E-1,4.153699875E0,-1.864999980E-1
1.784390476E1,-2.201299906E0,4.255799770E0,5.040000007E-2
1.786375789E1,-2.886799812E0,3.505999804E0,3.152999878E-1
1.788361101E1,-3.235599995E0,2.657299995E0,7.308999896E-1
1.790346258E1,-3.457899809E0,2.743999958E0,7.541999817E-1
1.792331570E1,-3.167799950E0,2.313799858E0,8.825999498E-1
1.794316883E1,-3.069799900E0,7.368999720E-1,1.439199924E0
1.796302195E1,-3.930299997E0,-3.083999872E0,2.988199949E0
1.798287508E1,-1.940899968E0,-1.261520004E1,7.355599880E0
1.800272820E1,5.659199715E0,-3.430059814E1,-2.241400003E0
1.802257976E1,1.492599964E0,-1.847970009E1,-1.006470013E1
1.804243289E1,4.501699924E0,7.027999759E-1,-9.017299652E0
1.806228601E1,1.625000000E0,9.926899910E0,-3.225999832E0
1.808213758E1,8.466999531E-1,1.160309982E1,-3.636600018E0
1.810199070E1,2.933899879E0,1.066599965E0,-2.134599924E0
1.812184226E1,4.301999807E-1,-6.875399590E0,4.699999988E-1
1.814169539E1,-2.064199924E0,-8.159099579E0,4.683199883E0
1.816154851E1,-2.987599850E0,-7.326499939E0,7.848899841E0
1.818140008E1,-2.795199871E0,-4.730400085E0,4.268899918E0
1.820125476E1,-3.256899834E0,-1.240000010E0,3.137999773E-1
1.822110633E1,-2.129299879E0,6.403999925E-1,-9.904999733E-1
1.824095945E1,7.819999754E-2,2.823899984E0,-1.079299927E0
1.826081101E1,1.246999979E0,3.661599874E0,-8.198999763E-1
1.828066414E1,1.960999966E0,2.810499907E0,-4.079999775E-2
1.830051570E1,1.141799927E0,4.371999800E-1,6.193000078E-1
1.832036883E1,-9.899999946E-2,-7.915999889E-1,1.358899951E0
1.834022195E1,-7.326999903E-1,-9.555999637E-1,1.532499909E0
1.836007351E1,-5.694000125E-1,-9.168999791E-1,6.350000203E-2
1.837992664E1,-1.423999965E-1,-2.357999980E-1,-1.823199987E0
1.839977976E1,1.103199959E0,5.781999826E-1,-1.942499995E0
1.841963289E1,2.164299965E0,1.289999932E-1,6.276999712E-1
1.843948445E1,2.164299965E0,-4.829999804E-1,2.002799988E0
1.845933758E1,1.410200000E0,-1.339100003E0,1.233799934E0
1.847919070E1,4.063999951E-1,-1.847000003E0,2.504999936E-1
1.849904226E1,-3.103999794E-1,-1.819199920E0,3.583999872E-1
1.851889539E1,-6.601999998E-1,-2.382699966E0,1.045499921E0
1.853874851E1,-1.559899926E0,-4.000100136E0,3.051999807E-1
1.855860008E1,-2.922799826E0,-5.418600082E0,-1.240199924E0
1.857845320E1,-1.493799925E0,-7.380799770E0,-1.925899982E0
1.859830633E1,9.833999872E-1,-5.479799747E0,-1.010900021E0
1.861815945E1,3.712599993E0,-2.569599867E0,1.214200020E0
1.863801101E1,5.448599815E0,-3.030400038E0,1.353099942E0
1.865786414E1,4.701399803E0,-4.283499718E0,-4.679999948E-1
1.867771726E1,3.660099983E0,-3.453999996E0,-1.751299977E0
1.869756883E1,-2.647999823E-1,-9.199999571E-1,-1.429399967E0
1.871742195E1,-2.925400019E0,3.725000024E-1,-4.332999885E-1
1.873727508E1,-3.186899900E0,1.970000006E-2,1.253899932E0
1.875712820E1,-2.634199858E0,-1.521999985E-1,1.347499967E0
1.877697976E1,-1.352299929E0,8.999999613E-3,8.678999543E-1
1.879683289E1,-8.289999515E-2,-2.533999979E-1,4.751999974E-1
1.881668601E1,8.432999849E-1,7.791000009E-1,-3.799999878E-2
1.883653758E1,1.844199896E0,2.418900013E0,-3.877999783E-1
1.885639070E1,1.357800007E0,4.270999908E0,-5.526999831E-1
1.887624383E1,1.211599946E0,5.771800041E0,-5.939999819E-1
1.889609695E1,2.590999901E-1,6.587899685E0,8.269999921E-2
1.891594851E1,-1.897699952E0,5.562399864E0,2.610000074E-1
1.893580164E1,-3.481999874E0,3.670799971E0,1.779999882E-1
1.895565945E1,-4.137899876E0,2.056299925E0,3.756999969E-1
1.897550633E1,-3.481799841E0,1.391499996E0,3.576000035E-1
1.899535945E1,-2.177000046E0,1.342299938E0,3.352999985E-1
1.901521258E1,-9.131999612E-1,2.664999962E-1,9.140999913E-1
1.903506414E1,2.354399920E0,-3.926100016E0,5.681200027E0
1.905491726E1,8.002300262E0,-1.337749958E1,6.368899822E0
1.907476883E1,6.775199890E0,-1.981270027E1,-3.251099825E0
1.909462195E1,7.163999677E-1,-1.113969994E1,-4.268799782E0
1.911447508E1,-5.560999870E0,1.085399985E0,-7.000000000E0
1.913432820E1,-5.715199947E0,6.373799801E0,-5.965899944E0
1.915417976E1,-2.387899876E0,4.972599983E0,-2.864099979E0
1.917403289E1,4.959999919E-1,-2.615999877E-1,3.909999877E-2
1.919388601E1,2.570999861E-1,-6.243099689E0,1.504899979E0
1.921373914E1,-4.601999819E-1,-6.620599747E0,2.706799984E0
1.923359226E1,2.859999985E-2,-2.901000023E0,4.163300037E0
1.925344226E1,6.864999533E-1,-4.299999680E-3,2.567800045E0
1.927329539E1,1.574599981E0,1.290499926E0,6.654999852E-1
1.929315008E1,2.589400053E0,1.240100026E0,-6.136999726E-1
1.931300164E1,2.542500019E0,1.204499960E0,-1.139299989E0
1.933285476E1,7.446999550E-1,7.032999992E-1,-2.639999986E-1
1.935270633E1,-1.122200012E0,-9.919999540E-2,-1.385999918E-1
1.937256570E1,-2.309299946E0,-7.827999592E-1,-1.767999977E-1
1.939241101E1,-3.009699821E0,-9.544000030E-1,-7.326999903E-1
1.941226414E1,-2.506500006E0,-1.043900013E0,-8.886999488E-1
1.943211726E1,-1.592099905E0,-6.310999990E-1,-4.826999903E-1
1.945196883E1,-5.138999820E-1,-1.611000001E-1,4.283999801E-1
1.947182195E1,7.195999622E-1,-7.620000094E-2,1.562799931E0
1.949167508E1,1.536000013E0,1.898999959E-1,1.860399961E0
1.951152820E1,1.960399985E0,4.909999967E-1,1.279999971E0
1.953137976E1,1.911899924E0,5.699999928E-1,5.698999763E-1
1.955123289E1,1.500599980E0,2.212999910E-1,-2.669000030E-1
1.957108601E1,9.376999736E-1,-3.490999937E-1,-8.439999819E-2
1.959093758E1,1.853999943E-1,-2.593999803E-1,1.743899941E0
1.961079070E1,-6.560000032E-2,-9.182999730E-1,3.039799929E0
1.963064383E1,2.023999989E-1,-1.462599993E0,2.266899824E0
1.965049695E1,-1.885999888E-1,-1.468899965E0,-7.947999835E-1
1.967034851E1,-6.013999581E-1,-2.586400032E0,-1.899699926E0
1.969020164E1,-1.810400009E0,-4.295700073E0,-1.553900003E0
1.971005476E1,-3.939899921E0,-5.338399887E0,-3.341999948E-1
1.972990789E1,-4.179500103E0,-6.661999702E0,8.469999582E-2
1.974975945E1,1.397099972E0,-6.822299957E0,-1.376399994E0
1.976961258E1,4.603499889E0,-6.905999660E0,-4.215399742E0
1.978946414E1,1.953699946E0,-5.879199982E0,-2.496599913E0
1.980931726E1,1.121999994E-1,-4.513599873E0,3.222800016E0
1.982917039E1,-7.685999870E-1,-2.064100027E0,9.477999806E-1
1.984902351E1,-2.505100012E0,1.958999932E-1,1.189499974E0
1.986887508E1,-3.033599854E0,7.177999616E-1,1.525900006E0
1.988872820E1,-1.426800013E0,-5.639999732E-2,7.056999803E-1
1.990858133E1,1.403999925E-1,-3.633999825E-1,-1.167999953E-1
1.992843289E1,1.262699962E0,5.139999837E-2,-1.734099984E0
1.994828601E1,1.782999992E0,1.059399962E0,-1.927599907E0
1.996813914E1,1.632200003E0,2.000599861E0,-6.237999797E-1
1.998799070E1,1.754199982E0,2.425899982E0,6.234999895E-1
2.000784383E1,1.587199926E0,2.877499819E0,1.512300014E0
2.002769695E1,1.208299994E0,3.306599855E0,1.672500014E0
2.004754851E1,9.276999831E-1,3.639699936E0,1.334599972E0
2.006740164E1,2.609999850E-2,3.539299965E0,7.091000080E-1
2.008725476E1,-9.070999622E-1,2.827100039E0,-8.419999480E-2
2.010710789E1,-1.959399939E0,2.355900049E0,-6.100000143E-1
2.012695945E1,-2.530599833E0,1.718999982E0,-8.784999847E-1
2.014681258E1,-2.661999941E0,1.425300002E0,-9.799000025E-1
2.016666570E1,-2.096400023E0,1.755499959E0,-7.444999814E-1
2.018651726E1,-1.299299955E0,2.348999977E0,-2.840999961E-1
2.020637039E1,-9.899999499E-1,2.722100019E0,2.847999930E-1
2.022622195E1,-1.390999913E0,2.673199892E0,2.310999930E-1
2.024607508E1,-1.885899901E0,1.544799924E0,-9.552999735E-1
2.026592820E1,-1.756799936E0,7.870000005E-1,-2.564999819E0
2.028578133E1,9.425999522E-1,-3.650599957E0,1.974900007E0
2.030563445E1,7.653800011E0,-1.616300011E1,4.545899868E0
2.032548601E1,5.001299858E0,-3.058279991E1,-6.003999710E-1
2.034533914E1,-1.050699949E0,-1.068190002E1,-9.085700035E0
2.036519226E1,0.000000000E0,3.903100014E0,-5.219099998E0
2.038504383E1,2.419999987E-1,1.021430016E1,-1.233999968E0
2.040489695E1,2.246299982E0,8.549799919E0,-1.315099955E0
2.042475008E1,1.599099994E0,2.629199982E0,1.211999953E-1
2.044460320E1,-8.993999958E-1,-3.570999861E0,1.437500000E0
2.046445476E1,-3.147500038E0,-6.096299648E0,2.317999840E0
2.048431258E1,-3.663699865E0,-4.928599834E0,7.167999744E-1
2.050415945E1,-3.606599808E0,-1.820299983E0,1.554099917E0
2.052401258E1,-4.262999892E-1,-9.929999709E-2,1.831999898E0
2.054386414E1,2.099400043E0,6.105999947E-1,3.560400009E0
2.056371883E1,1.549399972E0,7.925999761E-1,3.243199825E0
2.058357039E1,1.888999939E-1,3.443000019E-1,5.909999833E-2
2.060342195E1,-8.337999582E-1,2.529999986E-2,-2.273699999E0
2.062328133E1,-3.889999911E-2,1.178999990E-1,-2.480200052E0
2.064312820E1,9.599999785E-1,3.240000084E-2,-1.029199958E0
2.066298133E1,1.115299940E0,1.217999980E-1,-3.066999912E-1
2.068283445E1,5.806999803E-1,1.331999898E-1,-4.352999926E-1
2.070268601E1,-4.048999846E-1,8.709999919E-2,-4.046999812E-1
2.072253914E1,-1.072899938E0,1.533000022E-1,-5.099999718E-3
2.074239070E1,-1.162400007E0,-3.000000026E-3,7.220999599E-1
2.076224383E1,-1.204999924E0,-2.204999924E-1,1.162299991E0
2.078209695E1,-7.163000107E-1,-7.561999559E-1,1.836799979E0
2.080194851E1,-1.136999950E-1,-1.290399909E0,2.608199835E0
2.082180164E1,5.752999783E-1,-1.618899941E0,3.245800018E0
2.084165476E1,5.365999937E-1,-2.081799984E0,2.472499847E0
2.086150789E1,-6.534999609E-1,-4.235300064E0,-6.755999923E-1
2.088135945E1,-2.313599825E0,-5.541500092E0,-4.403500080E0
2.090121258E1,-1.513099909E0,-4.383699894E0,-5.200900078E0
2.092106570E1,2.678599834E0,-1.583099961E0,-2.633800030E0
2.094091726E1,6.245499611E0,1.308999956E-1,9.235999584E-1
2.096077039E1,5.394499779E0,3.226999938E-1,2.463399887E0
2.098062351E1,2.343799829E0,-6.972999573E-1,1.852299929E0
2.100047664E1,-4.691999853E-1,-1.763099909E0,6.484999657E-1
2.102032820E1,-1.631199956E0,-1.955799937E0,-7.383999825E-1
2.104018601E1,-2.041399956E0,-1.569899917E0,-1.263499975E0
2.106003445E1,-2.265100002E0,-7.728999853E-1,-6.394000053E-1
2.107988601E1,-1.444599986E0,-5.426999927E-1,-2.798999846E-1
2.109973914E1,-2.845000029E-1,-4.862999916E-1,4.259999990E-1
2.111959226E1,5.633999705E-1,-6.089999676E-1,4.610999823E-1
2.113944383E1,1.006299973E0,-6.868000031E-1,4.600999951E-1
2.115929695E1,4.598999918E-1,-9.491999745E-1,6.942999959E-1
2.117915633E1,3.254999816E-1,-9.181999564E-1,7.062000036E-1
2.119900164E1,6.868000031E-1,-1.956999898E-1,5.507000089E-1
2.121885476E1,6.938999891E-1,6.040999889E-1,3.725000024E-1
2.123870789E1,7.698999643E-1,1.216300011E0,3.102000058E-1
2.125856101E1,4.610999823E-1,1.986299992E0,3.718999922E-1
2.127841258E1,-3.350000083E-2,2.398799896E0,3.754999936E-1
2.129826570E1,-8.215999603E-1,2.792199850E0,2.102999985E-1
2.131811883E1,-1.192899942E0,3.061399937E0,-2.443999946E-1
2.133797039E1,-1.504299998E0,3.137199879E0,-6.308000088E-1
2.135782351E1,-1.465499997E0,3.035300016E0,-6.038999557E-1
2.137767664E1,-1.595899940E0,3.010200024E0,-4.035999775E-1
2.139753601E1,-1.542599916E0,2.676800013E0,-3.127999902E-1
2.141738133E1,-1.210699916E0,2.016499996E0,1.288999915E-1
2.143723445E1,-7.522000074E-1,9.648999572E-1,9.501999617E-1
2.145708601E1,-3.601000011E-1,-1.299999934E-2,1.692600012E0
2.147693914E1,1.644999981E-1,-5.763999820E-1,2.313400030E0
2.149679226E1,3.851999938E-1,-9.149000049E-1,2.952100039E0
2.151664539E1,-3.641999960E-1,-1.011899948E0,2.455299854E0
2.153649695E1,-6.640999913E-1,-7.376999855E-1,2.780999839E-1
2.155635008E1,3.069000006E0,-7.000799656E0,5.164799690E0
2.157620320E1,6.503399849E0,-1.807769966E1,-4.489399910E0
2.159605476E1,4.831999838E-1,-1.191559982E1,-4.982500076E0
2.161590789E1,1.296000034E-1,1.454699993E0,-1.016449928E1
2.163576101E1,2.756500006E0,8.639699936E0,-1.310099959E0
2.165561258E1,3.766899824E0,7.879399776E0,1.544099927E0
2.167546570E1,1.289899945E0,8.944999576E-1,-1.463999897E-1
2.169531883E1,-3.681999922E0,-4.128600121E0,-1.427299976E0
2.171517195E1,-5.104000092E0,-5.996500015E0,-1.685999990E0
2.173502976E1,-4.429599762E0,-6.231099606E0,2.125200033E0
2.175487664E1,-2.160799980E0,-5.772199631E0,2.419800043E0
2.177472976E1,-1.966699958E0,-3.423599958E0,1.660899997E0
2.179458289E1,-1.535499930E0,-2.366999984E-1,1.827999949E0
2.181443445E1,-3.524999917E-1,2.018499851E0,9.613999724E-1
2.183428758E1,5.799999833E-1,2.170799971E0,8.429999650E-2
2.185413914E1,1.153699994E0,2.005899906E0,-5.928999782E-1
2.187399695E1,1.173099995E0,1.141099930E0,-8.000999689E-1
2.189384383E1,8.576999903E-1,-1.835999936E-1,-2.406999916E-1
2.191369695E1,2.727999985E-1,-2.929999828E-1,-3.759999871E-1
2.193355164E1,2.159999870E-2,-8.999999845E-4,-6.053999662E-1
2.195340164E1,3.209999949E-2,2.840999961E-1,8.779999614E-2
2.197325476E1,2.211999893E-1,5.288000107E-1,7.680000067E-1
2.199310789E1,5.917999744E-1,1.397999972E-1,1.160699964E0
2.201296101E1,1.059899926E0,-8.755999804E-1,1.301599979E0
2.203281414E1,1.244499922E0,-2.133599997E0,1.539899945E0
2.205266570E1,8.247999549E-1,-2.460599899E0,1.389299989E0
2.207251883E1,6.826999784E-1,-2.152799845E0,4.045999944E-1
2.209237664E1,1.118399978E0,-1.796299934E0,-9.290000051E-2
2.211222351E1,8.037999868E-1,-2.295099974E0,-5.895999670E-1
2.213207664E1,-2.249999940E-1,-3.466399908E0,-6.129999757E-1
2.215192976E1,-2.440700054E0,-5.989999771E0,-6.694999933E-1
2.217178133E1,-4.325500011E0,-7.342000008E0,-1.883299947E0
2.219163445E1,-1.885299921E0,-7.454199791E0,-2.769500017E0
2.221148758E1,2.304499865E0,-5.111299992E0,-3.058899879E0
2.223133914E1,4.296400070E0,-3.014299870E0,-2.403499842E0
2.225119226E1,4.829799652E0,-2.753999949E0,2.620499849E0
2.227104539E1,5.815799713E0,-3.047600031E0,2.787600040E0
2.229089695E1,3.993299961E0,-2.525199890E0,-8.959999681E-1
2.231075008E1,-2.861000001E-1,-1.660799980E0,-2.504299879E0
2.233060320E1,-3.352999926E0,-1.630899906E0,-1.031399965E0
2.235045633E1,-3.766699791E0,-1.851099968E0,1.323699951E0
2.237030789E1,-1.994799972E0,-1.294600010E0,1.585399985E0
2.239016101E1,-7.198999524E-1,-7.915999889E-1,5.303999782E-1
2.241001414E1,1.244999990E-1,-2.188999951E-1,-1.132999957E-1
2.242986570E1,6.553999782E-1,5.277000070E-1,-5.303999782E-1
2.244971883E1,8.276999593E-1,9.535999894E-1,-2.390999943E-1
2.246957195E1,8.010999560E-1,3.137099981E0,3.741999865E-1
2.248942351E1,5.873000026E-1,4.901799679E0,4.807999730E-1
2.250927664E1,-2.334999889E-1,6.259699821E0,5.784999728E-1
2.252912976E1,-1.269999981E0,7.340600014E0,6.421999931E-1
2.254898289E1,-2.865299940E0,7.108999729E0,1.166999936E-1
2.256884070E1,-3.713799953E0,5.245699883E0,-8.685999513E-1
2.258868758E1,-3.709599972E0,3.086499929E0,-1.860199928E0
2.260854070E1,-2.599200010E0,1.727699995E0,-2.094699860E0
2.262839226E1,-1.071099997E0,1.223599911E0,-6.665999889E-1
2.264824539E1,1.860000007E-2,1.232900023E0,-1.606999934E-1
2.266809851E1,1.136999950E-1,7.415999770E-1,1.904999912E-1
2.268795008E1,-4.529999942E-2,-7.742999792E-1,2.258100033E0
2.270780320E1,3.018599987E0,-5.381799698E0,7.992899895E0
2.272765633E1,9.635899544E0,-1.922189903E1,8.861999512E-1
2.274750789E1,4.224999905E0,-2.711409950E1,-1.269799948E0
2.276736101E1,-4.137700081E0,-8.177599907E0,-1.179579926E1
2.278721883E1,-4.749099731E0,5.534399986E0,-1.006820011E1
2.280706726E1,-5.704999566E-1,9.315099716E0,-1.374799967E0
2.282691883E1,3.706499815E0,3.760099888E0,-5.744999647E-1
2.284677195E1,3.145699978E0,-4.231599808E0,-1.025099993E0
2.286662508E1,-6.193999648E-1,-8.821299553E0,-9.106000066E-1
2.288647664E1,-9.072999954E-1,-7.813299656E0,2.676699877E0
2.290632976E1,-1.220199943E0,-5.334699631E0,4.551000118E0
2.292618289E1,-6.976999640E-1,-2.356099844E0,2.949899912E0
2.294603445E1,-4.124999940E-1,2.928999960E-1,8.721999526E-1
2.296588758E1,-7.852999568E-1,1.912599921E0,-6.441000104E-1
2.298574539E1,1.630000025E-2,2.541999817E0,-8.384999633E-1
2.300559226E1,4.023999870E-1,2.345099926E0,-2.861000001E-1
2.302544539E1,3.098999858E-1,1.475299954E0,6.480000168E-2
2.304529851E1,-3.089999966E-2,6.090999842E-1,2.723000050E-1
2.306515008E1,-6.294999719E-1,3.168999851E-1,5.600999594E-1
2.308500320E1,-1.039299965E0,2.892999947E-1,4.776999950E-1
2.310485633E1,-1.066599965E0,3.450999856E-1,1.061999947E-1
2.312470945E1,-4.815999866E-1,2.476999909E-1,-5.469999835E-2
2.314456258E1,3.055999875E-1,7.214999795E-1,5.421999693E-1
2.316441414E1,2.831999958E-1,1.038499951E0,1.864699960E0
2.318426570E1,9.019999951E-2,2.691999972E-1,4.373699665E0
2.320411883E1,6.839999557E-2,-1.693399906E0,5.346299648E0
2.322397351E1,1.112699986E0,-2.940999985E0,3.804000020E-1
2.324382351E1,2.751199961E0,-2.888399839E0,-4.001199722E0
2.326367664E1,3.803099871E0,-2.550999880E0,-1.866299987E0
2.328352976E1,2.061199903E0,-4.320499897E0,5.706999898E-1
2.330338289E1,-3.591300011E0,-6.010200024E0,-1.887899995E0
2.332323445E1,-7.445099831E0,-8.156000137E0,-4.494299889E0
2.334308758E1,-3.463999987E0,-1.001889992E1,-5.496099949E0
2.336294070E1,3.944700003E0,-6.950999737E0,-1.344499946E0
2.338279226E1,5.777800083E0,-6.290099621E0,-6.746000051E-1
2.340265164E1,2.957099915E0,-4.613699913E0,8.515999913E-1
2.342249851E1,-6.179999933E-2,-2.464099884E0,3.818999827E-1
2.344235008E1,-1.454399943E0,-8.977999687E-1,-2.159999870E-2
2.346220320E1,-1.471799970E0,3.680000082E-2,1.379599929E0
2.348206258E1,-2.075999975E0,-1.731999964E-1,1.437699914E0
2.350190945E1,-2.338799953E0,-2.234999985E-1,2.777000070E-1
2.352176101E1,-1.169299960E0,-2.529999986E-2,-7.684999704E-1
2.354162039E1,3.849000037E-1,8.616999984E-1,-1.558899999E0
2.356146726E1,1.332899928E0,1.231099963E0,-1.324299932E0
2.358131883E1,1.599699974E0,3.119699955E0,-5.475999713E-1
2.360117195E1,1.379499912E0,3.386600018E0,6.345999837E-1
2.362102508E1,1.288399935E0,3.430099964E0,1.777699947E0
2.364087664E1,1.593299985E0,3.326499939E0,2.094799995E0
2.366072976E1,1.273000002E0,3.338799953E0,2.015300035E0
2.368058289E1,1.668999940E-1,3.096999884E0,1.233600020E0
2.370043445E1,-8.075000048E-1,2.485199928E0,8.527999520E-1
2.372028758E1,-1.554000020E0,1.674499989E0,6.017000079E-1
2.374014070E1,-1.764999986E0,1.365499973E0,1.512999982E-1
2.375999383E1,-1.551800013E0,1.766099930E0,-9.999999747E-5
2.377984539E1,-1.088099957E0,2.118999958E0,5.677999854E-1
2.379969851E1,-1.395099998E0,2.002599955E0,2.239199877E0
2.381955164E1,-2.754799843E0,1.637599945E0,3.383299828E0
2.383940320E1,-4.362499714E0,7.802999616E-1,2.654000044E0
2.385925633E1,-6.057899952E0,-1.150699973E0,2.006599903E0
2.387910945E1,-5.397099972E0,-6.874199867E0,2.862499952E0
2.389896258E1,2.255599976E0,-1.748959923E1,-3.124099970E0
2.391881414E1,5.059000015E0,-2.207379913E1,-5.001399994E0
2.393866726E1,3.423399925E0,-6.831299782E0,-6.200599670E0
2.395852039E1,6.338399887E0,4.900499821E0,-8.124599457E0
2.397837195E1,5.716399670E0,9.439399719E0,-4.403999746E-1
2.399822508E1,5.835299969E0,6.729499817E0,-3.095099926E0
2.401807820E1,2.661499977E0,-2.103299856E0,-2.832000017E0
2.403792976E1,-7.874000072E-1,-6.144199848E0,-2.403999865E-1
2.405778289E1,-2.705199957E0,-6.753399849E0,7.626999617E-1
2.407763601E1,-2.938299894E0,-6.273499966E0,3.886899948E0
2.409749383E1,-6.237099648E0,-3.902199984E0,6.277599812E0
2.411734070E1,-5.835499763E0,-5.094999671E-1,2.154199839E0
2.413719383E1,-2.700299978E0,9.858999848E-1,-6.953999996E-1
2.415704539E1,3.561999798E-1,9.304999709E-1,-6.319000125E-1
2.417690476E1,2.072099924E0,2.965999842E-1,3.859999776E-2
2.419675008E1,2.559900045E0,1.717000008E-1,4.300999939E-1
2.421660476E1,2.267199993E0,7.458999753E-1,5.446999669E-1
2.423646258E1,1.799199939E0,1.060400009E0,1.855999976E-1
2.425630945E1,9.032999873E-1,5.166999698E-1,-6.671999693E-1
2.427616258E1,-3.219999969E-1,-6.340000033E-1,-1.020900011E0
2.429601570E1,-1.220399976E0,-1.388000011E0,8.923999667E-1
2.431586726E1,-1.118199944E0,-1.413699985E0,5.131499767E0
2.433571883E1,3.300999999E-1,-1.824799895E0,5.456699848E0
2.435557195E1,1.161599994E0,-2.258199930E0,-3.470000029E-1
2.437542508E1,4.989999831E-1,-3.608399868E0,-4.832999706E0
2.439527820E1,-4.083999991E-1,-6.489199638E0,-3.467599869E0
2.441513133E1,-1.884299994E0,-8.241000175E0,-3.168499947E0
2.443498445E1,-6.194999814E-1,-6.112899780E0,-2.811199903E0
2.445483601E1,2.901299953E0,-3.416399956E0,-1.343999952E-1
2.447468914E1,5.144099712E0,-2.670599937E0,-1.164999977E-1
2.449454070E1,4.455299854E0,-3.383499861E0,2.818000019E-1
2.451439383E1,3.358699799E0,-5.064599991E0,6.488999724E-1
2.453424539E1,2.220700026E0,-4.230000019E0,-5.054000020E-1
2.455409851E1,-4.299999774E-2,-2.404399872E0,-1.619199991E0
2.457395164E1,-1.116899967E0,-1.557500005E0,-1.753299952E0
2.459380476E1,-1.797999978E0,-1.495499969E0,8.359999955E-2
2.461365789E1,-1.413599968E0,1.132200003E0,1.836699963E0
2.463351101E1,-1.028200030E0,-2.190000005E-2,1.165899992E0
2.465336258E1,-2.049999870E-2,2.178599834E0,-1.909999922E-2
2.467321570E1,-7.069000006E-1,2.761499882E0,-8.399999738E-1
2.469306726E1,-5.231999755E-1,2.200999975E0,-7.028999925E-1
2.471292039E1,1.209999993E-2,2.000900030E0,1.404999942E-1
2.473277351E1,4.183999896E-1,2.769999981E0,8.150999546E-1
2.475262664E1,5.719000101E-1,4.258599758E0,1.305699944E0
2.477247820E1,5.859999657E-1,5.747799873E0,1.227199912E0
2.479233133E1,-5.751999617E-1,5.934499741E0,1.250000000E0
2.481218289E1,-2.517999887E0,4.230199814E0,6.144999862E-1
2.483203601E1,-3.285599947E0,3.535199881E0,8.858000040E-1
2.485188914E1,-3.118499994E0,2.706099987E0,1.083500028E0
2.487174695E1,-2.113100052E0,1.458799958E0,1.355999947E0
2.489159383E1,-9.004999995E-1,-1.250199914E0,2.958199978E0
2.491144695E1,4.189999774E-2,-3.075599909E0,3.319199800E0
2.493129851E1,1.041000009E0,-3.271299839E0,2.879599810E0
2.495115164E1,1.923299909E0,-4.150700092E0,4.270299911E0
2.497100476E1,4.572099686E0,-8.455900192E0,3.279999793E-1
2.499085789E1,6.644399643E0,-1.614859962E1,-4.359099865E0
2.501070945E1,2.620199919E0,-1.378199959E1,-6.752899647E0
2.503056258E1,-1.939000010E0,-3.029099941E0,-5.346499920E0
2.505041570E1,-3.817499876E0,3.787899971E0,-3.527199984E0
2.507026726E1,-3.348199844E0,3.623099804E0,-4.920300007E0
2.509012039E1,-2.050999999E-1,-1.591399908E0,-3.102699995E0
2.510997351E1,1.098399997E0,-4.618499756E0,1.255999953E-1
2.512982508E1,1.031199932E0,-4.214099884E0,3.065799952E0
2.514967820E1,1.134099960E0,-4.983999729E-1,5.293299675E0
2.516953133E1,8.612999916E-1,2.833199978E0,4.555500031E0
2.518938289E1,6.771999598E-1,3.916199923E0,5.665000081E-1
2.520923601E1,-4.720000029E-1,1.264899969E0,-1.949599981E0
2.522908914E1,-1.840699911E0,2.054600000E0,-1.741599917E0
2.524894226E1,-1.743199944E0,9.950000048E-2,-1.053099990E0
2.526879383E1,-5.407999754E-1,1.026700020E0,1.050999999E0
2.528864695E1,-8.464999795E-1,3.638999760E-1,2.207599878E0
2.530850008E1,-1.233099937E0,-1.714100003E0,1.466300011E0
2.532835320E1,-8.547999859E-1,-2.880899906E0,9.522999525E-1
2.534820476E1,1.139999926E-2,-2.585399866E0,-5.697999597E-1
2.536805789E1,9.333999753E-1,-2.120199919E0,-1.080999970E0
2.538790945E1,1.393199921E0,-1.123999953E0,-3.774999976E-1
2.540776258E1,1.197000027E0,8.672999740E-1,3.249999881E-2
2.542761570E1,1.214200020E0,-1.233999953E-1,8.899999782E-3
2.544746883E1,-5.999999703E-4,-6.467999816E-1,2.866999805E-1
2.546732039E1,-6.642999649E-1,-7.854999900E-1,1.966999918E-1
2.548717351E1,-6.650000066E-2,-1.489000022E-1,3.964999914E-1
2.550702664E1,6.944999695E-1,-3.204999864E-1,8.643999696E-1
2.552687976E1,1.515399933E0,1.640999913E-1,1.160899997E0
2.554673133E1,1.625599980E0,1.097000003E0,1.477199912E0
2.556658914E1,7.432999611E-1,1.653299928E0,1.328799963E0
2.558643758E1,-3.791999817E-1,9.458999634E-1,3.086999953E-1
2.560628914E1,-1.510399938E0,-1.108799934E0,-4.987999797E-1
2.562614226E1,-2.563499928E0,-4.715600014E0,-3.588999808E-1
2.564599539E1,-2.053099871E0,-7.900899887E0,-1.972599983E0
2.566584851E1,1.566799998E0,-9.460700035E0,-3.631999969E0
2.568570008E1,4.000599861E0,-9.305500031E0,-4.486599922E0
2.570555320E1,3.615799904E0,-7.625599861E0,-2.152099848E0
2.572540633E1,2.061399937E0,-5.463799953E0,2.106400013E0
2.574525789E1,-1.317099929E0,-4.529900074E0,2.633599997E0
2.576511570E1,-3.668200016E0,-3.529899836E0,3.051699877E0
2.578496414E1,-3.063199997E0,-1.784999967E0,2.693699837E0
2.580481570E1,-7.367999554E-1,4.007000029E-1,7.754999995E-1
2.582466883E1,1.126899958E0,3.009399891E0,-1.511099935E0
2.584452195E1,1.976399899E0,5.482800007E0,-3.021099806E0
2.586437351E1,1.945299983E0,6.177999973E0,-2.461099863E0
2.588422664E1,1.067399979E0,7.897500038E0,-3.411999941E-1
2.590407820E1,-9.327999949E-1,6.623799801E0,1.734799981E0
2.592393289E1,-3.254299879E0,4.183799744E0,2.211499929E0
2.594378445E1,-4.798399925E0,2.658200026E0,7.979999781E-1
2.596363758E1,-4.778399944E0,2.013000011E0,-7.285999656E-1
2.598348914E1,-2.859799862E0,1.333299994E0,-1.053200006E0
2.600334226E1,-1.002599955E0,8.499999642E-1,-8.980999589E-1
2.602319383E1,8.707000017E-1,1.650999933E-1,-1.092000008E0
2.604304695E1,2.472899914E0,-9.621999860E-1,-5.060999990E-1
2.606290008E1,3.000099897E0,-2.725999832E0,-2.325399876E0
2.608275164E1,1.850999951E0,-3.452999830E0,-4.084700108E0
2.610260476E1,2.489599943E0,-4.163099766E0,-2.739199877E0
2.612245789E1,4.381199837E0,-4.990600109E0,9.781000018E-1
2.614231101E1,5.407199860E0,-7.270699978E0,3.147699833E0
2.616216258E1,6.696000099E-1,-2.651000023E0,1.653999925E0
2.618201570E1,-4.535999775E0,6.645999551E-1,6.938999891E-1
2.620186883E1,-5.595999718E0,1.339100003E0,6.071999669E-1
2.622172039E1,-3.906999826E0,1.627699971E0,6.220999956E-1
2.624157351E1,-8.786000013E-1,1.706799984E0,-2.608000040E-1
2.626143289E1,1.302399993E0,7.050999999E-1,-1.203999996E0
2.628127976E1,1.004999995E0,-9.742999673E-1,-1.186299920E0
2.630113133E1,-3.940000013E-2,-1.364099979E0,-1.100299954E0
2.632098445E1,-2.014999986E-1,-1.013999939E0,-3.376999795E-1
2.634083758E1,3.560999930E-1,-5.460999608E-1,3.876999915E-1
2.636068914E1,1.193799973E0,-5.144000053E-1,8.184999824E-1
2.638054226E1,1.760100007E0,-8.446999788E-1,1.068599939E0
2.640039539E1,1.219200015E0,-9.575999975E-1,5.690999627E-1
2.642024695E1,1.193999946E-1,-9.072999954E-1,-3.141999841E-1
2.644010008E1,-5.889999866E-1,-2.490999997E-1,-1.474099994E0
2.645995320E1,-8.113999963E-1,1.349000037E-1,-2.534999847E0
2.647980633E1,-5.661000013E-1,5.629999936E-2,-2.664299965E0
2.649965789E1,-3.260000050E-1,-3.109999932E-2,-1.663499951E0
2.651951101E1,-3.539999947E-2,-6.449999660E-2,-4.093999863E-1
2.653936258E1,2.110999972E-1,-1.576000005E-1,1.021299958E0
2.655921570E1,3.967999816E-1,-1.232999936E-1,1.731499910E0
2.657906883E1,2.386999875E-1,-2.412999868E-1,1.762699962E0
2.659892195E1,2.169999853E-2,-2.277999967E-1,1.192199945E0
2.661877351E1,-1.875000000E-1,-3.251999915E-1,4.157999754E-1
2.663862664E1,-2.748999894E-1,-3.291999996E-1,-2.468999922E-1
2.665847976E1,-2.655999959E-1,-3.228999972E-1,-4.682999849E-1
2.667833289E1,-1.536999941E-1,-2.897999883E-1,-2.813999951E-1
2.669818445E1,-2.342000008E-1,-9.339999408E-2,-1.815999895E-1
2.671803758E1,-1.844999939E-1,3.079999983E-2,-1.140000001E-1
2.673789070E1,-7.209999859E-2,-1.175999939E-1,-3.199999919E-3
2.675774226E1,1.571999937E-1,-1.465999931E-1,3.570000082E-2
2.677759539E1,2.769999802E-1,-9.399999864E-3,7.149999589E-2
2.679744851E1,2.617000043E-1,-1.119999960E-2,-7.880000025E-2
2.681730008E1,3.488000035E-1,-2.700999975E-1,-1.189999953E-1
2.683715320E1,4.792999923E-1,-3.385999799E-1,-1.040999964E-1
2.685700633E1,4.943999946E-1,-1.134999990E-1,2.870000005E-1
2.687685945E1,3.219999969E-1,1.523000002E-1,6.865999699E-1
2.689671101E1,3.227999806E-1,1.068999991E-1,1.132399917E0
2.691656414E1,3.826999962E-1,-5.845000148E-1,1.118099928E0
2.693641726E1,3.774999976E-1,-1.764299989E0,1.528999925E0
2.695626883E1,3.367999792E-1,-2.867499828E0,2.518800020E0
2.697612195E1,1.281999946E-1,-4.174399853E0,4.098199844E0
2.699597508E1,-1.100899935E0,-4.478300095E0,3.946399927E0
2.701582664E1,-2.296299934E0,-3.324100018E0,-1.166700006E0
2.703567976E1,-1.423999965E-1,-3.533599854E0,-2.752499819E0
2.705553289E1,2.898299932E0,-4.273799896E0,-2.590299845E0
2.707538601E1,4.271699905E0,-4.014100075E0,-2.454999924E0
2.709523758E1,1.148699999E0,-3.074899912E0,-7.785999775E-1
2.711509070E1,-3.606899977E0,-2.617899895E0,7.782999873E-1
2.713494383E1,-6.958799839E0,-2.094300032E0,1.059999943E0
2.715479539E1,-5.135999680E0,-1.946099997E0,1.521799922E0
2.717464851E1,-1.315500021E0,-2.490799904E0,1.036599994E0
2.719450164E1,1.662499905E0,-2.150300026E0,-7.069999725E-2
2.721435476E1,2.894299984E0,-1.508700013E0,-1.230199933E0
2.723420633E1,2.280499935E0,-6.374999881E-1,-1.374499917E0
2.725405945E1,1.772899985E0,4.490000010E-1,-8.524000049E-1
2.727391101E1,1.287699938E0,1.874300003E0,-8.699999750E-2
2.729376414E1,1.030900002E0,3.333099842E0,6.516999602E-1
2.731361726E1,6.834999919E-1,4.810100079E0,8.021000028E-1
2.733347039E1,1.397999972E-1,5.953700066E0,6.794999838E-1
2.735332195E1,-5.338000059E-1,6.289799690E0,4.548999965E-1
2.737317508E1,-1.815199971E0,5.718299866E0,-5.529999733E-2
2.739302820E1,-3.420300007E0,4.035599709E0,-1.013999954E-1
2.741287976E1,-5.157499790E0,2.147799969E0,4.268999994E-1
2.743273133E1,-3.930699825E0,3.709999919E-1,1.113199949E0
2.745258601E1,-3.812500000E0,-4.129000008E-1,2.711099863E0
2.747243758E1,-4.929100037E0,-3.233399868E0,7.788099766E0
2.749229070E1,-6.179800034E0,-7.976199627E0,1.018639946E1
2.751214383E1,-4.687999785E-1,-2.183989906E1,-2.036299944E0
2.753199539E1,-2.128200054E0,-1.657309914E1,-1.807970047E1
2.755184851E1,4.263299942E0,7.658999562E-1,-8.239799500E0
2.757170008E1,7.370599747E0,8.325499535E0,1.052500010E0
2.759155320E1,5.695899963E0,4.738100052E0,-2.823999882E0
2.761140633E1,6.459899902E0,-5.990299702E0,-3.555499792E0
2.763125945E1,1.606499910E0,-1.063009930E1,-1.936899900E0
2.765111258E1,-2.267099857E0,-9.179100037E0,7.473399639E0
2.767096414E1,-3.171599865E0,-7.042999744E0,6.555899620E0
2.769081726E1,-3.979199886E0,-2.827600002E0,1.885899901E0
2.771066883E1,-2.286399841E0,8.269000053E-1,-9.709999561E-1
2.773052195E1,-6.829000115E-1,-7.820999622E-1,-2.151900053E0
2.775037508E1,2.383800030E0,2.605499983E0,-3.024999797E-1
2.777022664E1,2.685799837E0,3.428099871E0,1.834599972E0
2.779007976E1,2.375999928E0,2.814299822E0,1.996699929E0
2.780993289E1,1.285899997E0,1.540300012E0,1.956399918E0
2.782978601E1,-1.419000030E-1,2.007799864E0,5.940999985E-1
2.784964383E1,-1.054299951E0,2.729399920E0,-1.180599928E0
2.786949070E1,-2.059499979E0,2.752399921E0,-3.176299810E0
2.788934383E1,-2.694000006E0,1.652899981E0,-3.706699848E0
2.790919539E1,-3.454900026E0,-1.595399976E0,-2.583600044E0
2.792904851E1,-2.098099947E0,-6.405900002E0,-1.403299928E0
2.794890164E1,2.588000000E-1,-1.269629955E1,-1.138999984E-1
2.796875476E1,4.405799866E0,-1.189989948E1,7.188999653E-1
2.798860633E1,5.726599693E0,-6.539799690E0,1.401499987E0
2.800845945E1,4.754899979E0,-2.560999870E0,1.311699986E0
2.802831258E1,2.040400028E0,-1.088199973E0,2.568999827E-1
2.804816414E1,-1.389699936E0,-3.523599863E0,-1.571200013E0
2.806801726E1,-2.006599903E0,-3.293399811E0,-2.171900034E0
2.808787039E1,-1.582599998E0,-9.792999625E-1,-1.314700007E0
2.810772195E1,7.971999645E-1,4.786499977E0,3.211999834E-1
2.812757508E1,7.694000006E-1,3.052699804E0,3.793999851E-1
2.814742820E1,-1.695999950E-1,6.012499809E0,1.039799929E0
2.816727976E1,-2.192899942E0,2.839900017E0,6.218999624E-1
2.818713289E1,-1.822600007E0,3.896299839E0,7.685999870E-1
2.820698601E1,-1.303900003E0,5.777800083E0,1.021499991E0
2.822683914E1,-1.249099970E0,3.887899876E0,7.034999728E-1
2.824669070E1,-8.082999587E-1,2.340299845E0,7.760999799E-1
2.826654383E1,-7.282999754E-1,1.517099977E0,1.522699952E0
2.828639695E1,-5.543999672E-1,5.658999681E-1,2.684700012E0
2.830624851E1,3.958999813E-1,-3.718199968E0,3.224299908E0
2.832610164E1,3.102099895E0,-6.676300049E0,1.937699914E0
2.834595476E1,2.329499960E0,-7.087899685E0,-2.515399933E0
2.836580633E1,2.308199883E0,-5.532899857E0,-4.588500023E0
2.838565945E1,1.459599972E0,-1.697399974E0,-3.866899967E0
2.840551101E1,-4.662999809E-1,7.433999777E-1,-2.753199816E0
2.842536570E1,-1.594999909E0,4.342999756E-1,-7.093999982E-1
2.844521726E1,-2.241299868E0,-4.044999778E-1,8.519999981E-1
2.846507039E1,-1.740399957E0,-7.032999992E-1,8.782999516E-1
2.848492351E1,-9.577999711E-1,-9.669999778E-2,1.187299967E0
2.850477508E1,-4.829999804E-1,-5.483999848E-1,9.653999805E-1
2.852462820E1,-2.778999805E-1,-1.304299951E0,1.122799993E0
2.854448601E1,-1.871799946E0,1.062199950E0,1.430299997E0
2.856433289E1,1.713999957E-1,1.146299958E0,7.095999718E-1
2.858418601E1,1.309599996E0,-3.172000051E-1,2.601999938E-1
2.860403914E1,1.059499979E0,-4.720999897E-1,-3.249000013E-1
2.862389226E1,4.948999882E-1,4.069999754E-1,-9.147999883E-1
2.864374383E1,1.353999972E-1,1.057699919E0,-9.565999508E-1
2.866359695E1,5.777999759E-1,-1.169999968E-2,-8.195999861E-1
2.868344851E1,4.896999896E-1,-1.422899961E0,-8.468999863E-1
2.870330164E1,-3.231999874E-1,-2.049399853E0,-7.300999761E-1
2.872315476E1,-4.099999741E-2,-1.384699941E0,-8.070999980E-1
2.874300633E1,-3.382999897E-1,-1.045999974E-1,-3.746999800E-1
2.876285945E1,-4.858999848E-1,1.284799933E0,3.093000054E-1
2.878271258E1,8.413999677E-1,7.726999521E-1,6.042999625E-1
2.880256414E1,8.752999902E-1,2.620000020E-2,3.860999942E-1
2.882241726E1,1.143000007E0,-1.091099977E0,3.707999885E-1
2.884227039E1,-7.886999846E-1,-5.943999887E-1,3.865000010E-1
2.886212195E1,-1.971399903E0,1.009999961E-2,3.828999996E-1
2.888197664E1,-1.141999960E0,2.331999987E-1,1.306999922E-1
2.890182820E1,-4.923999906E-1,2.654999793E-1,-4.533999860E-1
2.892168133E1,2.770999968E-1,4.375999868E-1,-2.859999985E-2
2.894153289E1,4.129000008E-1,3.508999944E-1,-9.019999951E-2
2.896138601E1,4.114999771E-1,-3.084999919E-1,-2.831999958E-1
2.898123914E1,4.317999780E-1,-7.587999701E-1,-1.393000036E-1
2.900109070E1,1.475999951E-1,-7.561999559E-1,1.889999956E-2
2.902094383E1,1.193000004E-1,-3.203999996E-1,6.989999861E-2
2.904079695E1,4.063999951E-1,8.299999870E-3,-4.016999900E-1
2.906064851E1,1.587399960E0,-6.575999856E-1,-7.245999575E-1
2.908050164E1,1.632499933E0,-5.648999810E-1,-2.337999940E-1
2.910035476E1,9.835000038E-1,-8.082000017E-1,5.277999640E-1
2.912020789E1,6.509000063E-1,-1.029199958E0,1.093799949E0
2.914005945E1,-1.600999981E-1,-1.155200005E0,8.772000074E-1
2.915991258E1,-1.335699916E0,-8.708999753E-1,-1.238999963E-1
2.917976570E1,-1.623199940E0,-3.683999777E-1,-9.121999741E-1
2.919961726E1,-1.377599955E0,-4.470999837E-1,-1.706900001E0
2.921947039E1,-7.998999953E-1,7.069999725E-2,-1.454000026E-1
2.923932351E1,4.549999833E-1,-4.865999818E-1,6.250999570E-1
2.925917508E1,6.326000094E-1,-5.579000115E-1,1.202399969E0
2.927902820E1,-4.729999900E-1,1.706999987E-1,1.553200006E0
2.929888133E1,-8.220999837E-1,-3.869999945E-1,8.592999578E-1
2.931873445E1,9.086999893E-1,-4.152999818E-1,-6.940000057E-1
2.933858601E1,2.022799969E0,-2.946999967E-1,-1.417699933E0
2.935843914E1,1.726999998E0,8.499999531E-3,-1.176199913E0
2.937829226E1,1.428900003E0,-1.482999921E-1,-3.357999921E-1
2.939814383E1,1.560999900E-1,1.001999974E-1,3.032000065E-1
2.941799695E1,-4.265999794E-1,6.755999923E-1,4.439999908E-2
2.943785008E1,-4.611999989E-1,7.098000050E-1,-3.540999889E-1
2.945770320E1,-8.079999685E-1,4.228999913E-1,-5.109999701E-2
2.947755476E1,-6.187999845E-1,3.676999807E-1,5.795999765E-1
2.949740789E1,-4.349999875E-2,-5.964999795E-1,1.423699975E0
2.951725945E1,3.423999846E-1,-9.381999969E-1,1.438899994E0
2.953711258E1,8.837999701E-1,-9.896999598E-1,3.877999783E-1
2.955696570E1,6.556000113E-1,-3.759000003E-1,-1.481999904E-1
2.957681726E1,1.005900025E0,-1.811999977E-1,-5.119999647E-1
2.959667039E1,7.841999531E-1,8.879999816E-2,-5.266999602E-1
2.961652351E1,5.062999725E-1,1.158000007E-1,-7.900999784E-1
2.963637664E1,6.468999982E-1,-1.557999998E-1,-1.894799948E0
2.965622820E1,-1.034500003E0,2.311999947E-1,2.353399992E0
2.967608133E1,-1.538999915E0,3.452999890E-1,5.058599949E0
2.969593289E1,-3.824999928E-1,-3.910000026E-1,3.043799877E0
2.971578758E1,1.340999901E-1,-9.598000050E-1,-5.727999806E-1
2.973563914E1,8.144999743E-1,-1.121199965E0,-3.846699953E0
2.975549226E1,1.026399970E0,-4.941999912E-1,-3.139600039E0
2.977534539E1,7.667999864E-1,3.748999834E-1,-1.066200018E0
2.979519695E1,9.292999506E-1,2.853999853E0,6.204999685E-1
2.981504851E1,-4.994999766E-1,-1.337799907E0,1.382200003E0
2.983490164E1,-2.666199923E0,-8.588999510E-1,8.558999896E-1
2.985475476E1,-1.304000020E0,7.648999691E-1,2.239999920E-2
2.987460789E1,9.756999612E-1,-6.640999913E-1,-5.785999894E-1
2.989445945E1,1.031199932E0,-1.037999988E0,-5.370000005E-1
2.991431258E1,4.363999963E-1,-5.005999804E-1,3.418000042E-1
2.993416570E1,1.496799946E0,3.014999926E-1,1.368699908E0
2.995401726E1,1.468799949E0,1.715999991E-1,1.163599968E0
2.997387039E1,7.681999803E-1,-1.855999976E-1,3.999999899E-4
2.999372351E1,2.268999964E-1,-8.009999990E-2,-1.391199946E0
3.001357664E1,-4.341000021E-1,-5.978999734E-1,-1.203599930E0
3.003342820E1,-1.275499940E0,-1.009299994E0,-1.915999949E-1
3.005328133E1,-1.319800019E0,-1.041499972E0,6.402999759E-1
3.007313289E1,-5.022000074E-1,-4.998999834E-1,1.086300015E0
3.009298601E1,8.569999784E-2,-1.699199915E0,2.520000003E-2
3.011283914E1,2.962999940E-1,-6.926999688E-1,-1.350999922E-1
3.013269226E1,9.085999727E-1,-1.768999994E-1,-3.258000016E-1
3.015254383E1,5.627999902E-1,3.653999865E-1,-2.162999958E-1
3.017239695E1,-5.941999555E-1,7.240999937E-1,-2.138999999E-1
3.019224851E1,-8.612999916E-1,4.267999828E-1,-7.009999752E-1
3.021210164E1,-8.405999541E-1,7.789999843E-1,-4.299999774E-2
3.023195476E1,4.066999853E-1,1.999999881E-1,1.011999995E-1
3.025180789E1,1.489999983E-2,-3.158999979E-1,8.364999890E-1
3.027165945E1,-9.128999710E-1,-8.919000030E-1,1.138000011E0
3.029151258E1,-9.932999611E-1,-1.711099982E0,1.086699963E0
3.031136570E1,-9.968999624E-1,-3.948199987E0,1.026299953E0
3.033121726E1,-2.531000078E-1,2.180000022E-2,-4.444299698E0
3.035107039E1,4.616999924E-1,5.619999766E-1,-5.527999997E-1
3.037092351E1,2.377999872E-1,-7.850999832E-1,1.788399935E0
3.039077664E1,-1.024699926E0,-6.135999560E-1,2.539000034E0
3.041062820E1,8.731999993E-1,5.059999973E-2,7.819999754E-2
3.043048133E1,2.714599848E0,7.416999936E-1,-1.457899928E0
3.045033445E1,1.598500013E0,6.035999656E-1,3.199999919E-3
3.047018758E1,1.282999963E-1,2.217499971E0,7.932999730E-1
3.049003914E1,-1.468299985E0,1.629299998E0,1.331200004E0
3.050989226E1,-1.422999978E0,8.297999501E-1,6.949999928E-2
3.052974539E1,-7.766999602E-1,7.744999528E-1,-1.423099995E0
3.054959695E1,-4.440999925E-1,5.299999714E-1,-5.705999732E-1
3.056945008E1,6.410999894E-1,-4.269999862E-1,-1.403999925E-1
3.058930320E1,1.237599969E0,-9.519000053E-1,-4.770999849E-1
3.060915476E1,2.264999866E0,-2.008999884E-1,-8.965999484E-1
3.062900789E1,1.367900014E0,-5.924000144E-1,-8.782999516E-1
3.064886101E1,2.120999992E-1,-1.243999958E0,-1.336999983E-1
3.066871258E1,3.170999885E-1,-2.127399921E0,1.521499991E0
3.068856570E1,-1.315500021E0,-2.601300001E0,1.792599916E0
3.070841883E1,-1.810199976E0,-1.548699975E0,9.222999811E-1
3.072827195E1,-4.323000014E-1,-6.173999906E-1,-4.369999766E-1
3.074812351E1,-2.193999887E-1,-3.718999922E-1,-9.535999894E-1
3.076797664E1,-6.563000083E-1,6.006000042E-1,-6.740000099E-2
3.078782820E1,-1.121500015E0,1.475099921E0,1.465699911E0
3.080768133E1,-1.252799988E0,1.900999993E-1,1.202199936E0
3.082753445E1,5.364999771E-1,-2.034899950E0,-1.268100023E0
3.084738758E1,4.292999804E-1,-3.503999949E0,-1.424099922E0
3.086723914E1,-1.237100005E0,-7.972999811E-1,-1.835799932E0
3.088709070E1,-1.723199964E0,-7.519999892E-2,2.976000011E-1
3.090694539E1,-1.298299909E0,7.687999606E-1,1.763700008E0
3.092679851E1,9.879999608E-2,1.162000000E-1,1.853899956E0
3.094665008E1,1.289399981E0,-3.100999892E-1,3.413999975E-1
3.096650320E1,8.465999961E-1,3.859999776E-1,-3.306999803E-1
3.098635633E1,7.224999666E-1,1.649299979E0,-4.749999940E-1
3.100620789E1,-1.755999923E-1,1.758399963E0,1.809999906E-2
3.102606101E1,-1.427500010E0,1.539600015E0,4.591999948E-1
3.104591258E1,-8.148999810E-1,2.093400002E0,2.856999934E-1
3.106576570E1,-3.206999898E-1,1.191599965E0,-5.658999681E-1
3.108561883E1,-3.749999776E-2,7.440999746E-1,-4.421999753E-1
3.110547039E1,2.581999898E-1,3.626999855E-1,-4.928999841E-1
3.112532351E1,7.679999620E-2,-6.814000010E-1,-2.500999868E-1
3.114517664E1,5.072999597E-1,-8.789999485E-1,3.310999870E-1
3.116502820E1,-9.959999472E-2,-5.554999709E-1,-5.388000011E-1
3.118488289E1,-5.151999593E-1,-8.206999898E-1,2.529000044E-1
3.120473445E1,-1.355799913E0,-1.824899912E0,7.949000001E-1
3.122458758E1,-8.448999524E-1,-3.171599865E0,5.541999936E-1
3.124443914E1,-1.234699965E0,-1.591499925E0,-9.420000017E-2
3.126429226E1,-1.255999953E-1,-9.729999900E-1,6.050999761E-1
3.128414539E1,6.419999897E-2,-3.623999953E-1,1.112599969E0
3.130399851E1,6.258999705E-1,8.709999919E-2,9.510999918E-1
3.132385008E1,6.099999882E-3,3.199999779E-2,3.731999993E-1
3.134370320E1,-4.927999973E-1,4.930000007E-2,6.790000200E-2
3.136355633E1,-3.351999819E-1,5.372999907E-1,-9.371999502E-1
3.138340789E1,-1.112900019E0,5.672000051E-1,-2.678000033E-1
3.140326101E1,-1.010699987E0,1.012499928E0,2.858999968E-1
3.142311414E1,-2.467999905E-1,-1.731999964E-1,1.565699935E0
3.144296570E1,6.126999855E-1,-1.006999969E0,1.247999966E-1
3.146281883E1,1.003499985E0,-3.455999792E-1,-2.280299902E0
3.148267195E1,1.305400014E0,4.629999995E-1,-2.550899982E0
3.150252508E1,3.489999771E-1,5.455999970E-1,3.292999864E-1
3.152237664E1,-1.661899924E0,-4.072999954E-1,-1.199999941E-3
3.154222976E1,-3.523799896E0,-2.763700008E0,1.659699917E0
3.156208133E1,-1.370800018E0,-2.238399982E0,2.157999992E0
3.158193445E1,2.070400000E0,-2.295399904E0,-9.061999917E-1
3.160178758E1,1.626299977E0,-6.888999939E-1,-7.140000165E-2
3.162164070E1,-9.443999529E-1,-2.819999866E-2,-7.469999790E-1
3.164149226E1,-1.923499942E0,4.722999930E-1,-9.921000004E-1
3.166134539E1,-2.904199839E0,5.152999759E-1,-1.414199948E0
3.168119851E1,-1.785399914E0,1.088999957E-1,5.577999949E-1
3.170105008E1,-8.468999863E-1,-4.199000001E-1,1.988299966E0
3.172090320E1,-1.052399993E0,-7.220000029E-1,4.996999800E-1
3.174076258E1,-4.786999822E-1,-9.242999554E-1,-5.993999839E-1
3.176060789E1,2.953000069E-1,-4.263999760E-1,2.389099836E0
3.178046101E1,7.949999720E-2,-1.710999906E-1,1.528999925E0
3.180031414E1,-1.717999935E0,-7.129999995E-2,1.210500002E0
3.182016726E1,-3.890499830E0,-4.759999812E-1,2.227999926E0
3.184001883E1,-3.119799852E0,-3.430999815E-1,-1.095499992E0
3.185987195E1,-2.376099825E0,1.981000006E-1,-8.203999996E-1
3.187972508E1,-2.008699894E0,3.919000030E-1,1.738099933E0
3.189957664E1,-1.706299901E0,2.182999998E-1,2.819299936E0
3.191942976E1,-2.316499949E0,-1.037500024E0,2.173899889E0
3.193928289E1,-3.860099792E0,-1.947499990E0,1.164399981E0
3.195913445E1,-3.531099796E0,-2.137399912E0,6.060000062E-1
3.197898758E1,-8.904999495E-1,-1.814899921E0,3.222000003E-1
3.199884070E1,9.669999480E-1,-1.094099998E0,1.099699974E0
3.201869226E1,1.342800021E0,-1.170799971E0,1.092800021E0
3.203854539E1,6.187999845E-1,-5.906000137E-1,-4.129999876E-1
3.205839851E1,1.206200004E0,2.612999976E-1,-1.113699913E0
3.207825164E1,1.761199951E0,1.492999911E0,-1.475999951E-1
3.209810320E1,4.508199692E0,2.907999992E0,1.581599951E0
3.211795633E1,4.154900074E0,2.124699831E0,6.417999864E-1
3.213780945E1,2.130899906E0,2.601599932E0,-1.800799966E0
3.215766258E1,2.399199963E0,2.767999887E0,-2.101099968E0
3.217751414E1,1.813300014E0,1.947600007E0,-1.770799994E0
3.219736726E1,9.580999613E-1,1.618799925E0,-1.833299994E0
3.221722039E1,2.169999853E-2,7.127999663E-1,-2.105599880E0
3.223707195E1,1.974999905E-1,8.055999875E-1,4.088200092E0
3.225692508E1,-9.439999610E-2,9.237999916E-1,2.179199934E0
3.227677820E1,1.491999924E-1,6.717000008E-1,6.013000011E-1
3.229662976E1,-1.498000026E-1,8.161999583E-1,-4.820000008E-2
3.231648289E1,-1.137799978E0,6.304000020E-1,-1.009899974E0
3.233633601E1,-3.881999850E-1,7.664999962E-1,-7.120999694E-1
3.235618758E1,4.405999780E-1,9.203999639E-1,2.431999892E-1
3.237604070E1,5.321999788E-1,3.057000041E-1,-3.634999990E-1
3.239589383E1,4.265999794E-1,2.170999944E-1,-7.436999679E-1
3.241574695E1,5.712999701E-1,5.788999796E-1,7.459999621E-2
3.243559851E1,-6.979999691E-2,2.282999903E-1,-8.219999820E-2
3.245545164E1,-3.233999908E-1,2.789999843E-1,-5.990999937E-1
3.247530476E1,3.671000004E-1,1.761000007E-1,-1.199000001E0
3.249515633E1,7.633000016E-1,1.693999916E-1,-9.746999741E-1
3.251500945E1,5.873000026E-1,2.665999830E-1,3.779999912E-2
3.253486258E1,1.473999918E-1,2.679999918E-2,2.170999944E-1
3.255471414E1,-1.935999990E-1,9.229999781E-2,1.097999960E-1
3.257456726E1,3.219999745E-2,2.101999968E-1,2.608000040E-1
3.259442039E1,-1.708000004E-1,-1.620000042E-2,9.559999406E-2
3.261427195E1,-3.315999806E-1,-3.329999745E-2,3.646000028E-1
3.263412508E1,-2.263999879E-1,7.530000061E-2,9.108999968E-1
3.265397664E1,-1.655000001E-1,1.149999946E-1,6.261000037E-1
3.267382976E1,1.288999915E-1,7.919999957E-2,6.051999927E-1
3.269368289E1,7.818999887E-1,-2.453999966E-1,-2.462800026E0
3.271353601E1,3.044999838E-1,2.969000041E-1,1.063999981E-1
3.273338758E1,2.921999991E-1,4.016000032E-1,1.366500020E0
3.275324070E1,4.619999975E-2,3.060999811E-1,9.961999655E-1
3.277309383E1,-5.128999949E-1,2.502999902E-1,2.398999929E-1
