"Time (s)","Linear Acceleration x (m/s^2)","Linear Acceleration y (m/s^2)","Linear Acceleration z (m/s^2)"
7.038053800E-2,0.000000000E0,0.000000000E0,0.000000000E0
9.015027700E-2,4.300194979E-2,-2.991580963E-2,-2.929944992E-1
1.099216310E-1,1.006339788E-1,8.683538437E-2,-6.904330254E-1
1.296914230E-1,-2.415287495E-2,2.274036407E-3,-4.323134422E-1
1.494627770E-1,-3.303897381E-2,2.640552521E-1,4.240231514E-1
1.692325170E-1,-7.115045786E-1,3.095612526E-1,6.870851517E-1
1.890039230E-1,-8.871724010E-1,4.272508621E-2,7.233386040E-1
2.087736630E-1,-1.159338355E0,2.017345428E-1,5.732741356E-1
2.285450690E-1,-9.198706150E-1,-9.092330933E-3,1.872124672E-1
2.483148080E-1,-8.635727763E-1,2.345533371E-1,-2.745680809E-1
2.680861630E-1,-1.987159133E0,3.017106056E-1,-1.679599285E0
2.878559540E-1,-9.379151464E-1,7.791948318E-2,-1.370052814E0
3.076273080E-1,6.999187469E-1,-2.551698685E-2,9.109354019E-1
3.273971000E-1,1.204268932E-1,9.946107864E-2,5.313539505E-1
3.471684540E-1,-2.943403721E-1,-1.991758347E-1,4.029512405E-2
3.669381940E-1,-4.161238670E-1,2.085256577E-1,3.241982460E-1
3.867096000E-1,-8.503111601E-1,3.577318192E-1,8.104562759E-2
4.064793400E-1,-1.109535694E0,4.307179451E-1,-1.948714256E-1
4.262506940E-1,5.176324248E-1,6.378431320E-1,-3.817124367E-1
4.460204850E-1,2.270657063E0,4.680948257E-1,1.457749844E0
4.657918400E-1,8.595440984E-1,4.472947121E-1,1.049601555E0
4.855615790E-1,5.120539665E-1,2.127985954E-1,-4.894762039E-1
5.053329850E-1,1.052132368E0,2.781291008E-1,-6.624221802E-3
5.251027250E-1,2.845460773E-1,6.820011139E-2,-5.718789101E-1
5.448740790E-1,3.534303904E-1,3.075170517E-2,-1.346398830E0
5.646438710E-1,1.359970093E0,2.527236938E-2,-1.396937370E0
5.844152250E-1,2.211533308E0,-6.441149712E-1,-1.438409328E0
6.041850170E-1,1.825690508E0,-3.842363358E-1,-8.293247223E-2
6.239563710E-1,2.625093222E0,-6.721210480E-1,9.199428558E-2
6.437261100E-1,3.214230776E0,-8.939194679E-1,-2.847995758E-1
6.634974650E-1,3.301835060E0,-5.048160553E-1,5.050592422E-1
6.832672560E-1,3.153954268E0,5.067114830E-1,-3.089671135E0
7.030386100E-1,3.611942291E0,-2.759395123E0,-3.843808174E-1
7.228084020E-1,2.902996302E0,-2.019067287E0,1.468944550E-1
7.425797560E-1,1.724505544E0,-1.328701019E0,3.346552372E0
7.623494960E-1,3.007529020E0,-3.324337721E0,4.415559769E0
7.821209020E-1,6.014074326E0,-3.936435223E0,-1.372273922E0
8.018906420E-1,3.349995613E0,-4.539778709E0,-4.051852226E-1
8.216619960E-1,3.252524137E0,-5.126378059E0,6.091167450E0
8.414317880E-1,3.516032219E0,-5.124347687E0,1.287142754E0
8.612031420E-1,2.941274405E0,-3.903676987E0,5.172038078E-1
8.809728810E-1,1.934327602E0,-3.070418358E0,2.037153244E0
9.007442880E-1,2.436738014E-1,-2.267341375E0,2.684375763E0
9.205140270E-1,1.179915667E0,-3.454476357E0,1.138668060E0
9.402853810E-1,1.775019169E0,-2.800369501E0,5.380048752E-1
9.600551730E-1,2.279808044E0,-1.635454655E0,-1.079439640E0
9.798265270E-1,1.564816236E0,-1.152137756E0,-2.124579906E0
9.995962670E-1,2.416427135E0,-1.713796616E0,-2.010630608E0
1.019367673E0,1.767660141E0,-3.139822960E0,-2.610240936E0
1.039137413E0,-1.700881958E0,-3.548076153E0,-4.835041046E0
1.058908767E0,-1.992352486E0,-3.528934002E0,-1.723901272E0
1.078678558E0,-2.359197617E0,-1.975702882E0,4.709882736E-1
1.098449913E0,-3.894621849E0,-9.530901909E-1,-9.270644188E-1
1.118219652E0,-4.413322449E0,-1.531769514E0,-3.026216030E0
1.137991058E0,-4.203932285E0,-2.126948118E0,-4.319622993E0
1.157760798E0,-5.832841396E0,-1.369685769E0,-4.208588123E0
1.177532152E0,-7.570284843E0,-1.434156418E0,-2.805248260E0
1.197301944E0,-6.990037918E0,-1.826180816E0,-2.488602638E0
1.217073298E0,-5.695508957E0,-2.495869398E0,-1.605630636E0
1.236843038E0,-5.487101078E0,-2.824948788E0,-6.544327736E-1
1.256614444E0,-7.129642010E0,-2.565490723E0,-9.035382271E-1
1.276384183E0,-8.042324066E0,-2.413029909E0,-3.929333687E-1
1.296155538E0,-7.873793602E0,-2.133748770E0,8.290419579E-1
1.315925329E0,-7.448795795E0,-1.267518044E0,1.942511797E0
1.335696683E0,-6.858247280E0,6.048479080E-1,3.440427780E0
1.355466423E0,-6.178040028E0,1.316027641E0,4.983373642E0
1.375237777E0,-5.534862518E0,3.210253716E-1,4.351370811E0
1.395007569E0,-6.456023693E0,-1.615180969E-1,5.743563175E-1
1.414778923E0,-7.309652328E0,1.386277199E0,-2.195946693E0
1.434548663E0,-6.621975899E0,2.513608932E0,-1.366108179E0
1.454320069E0,-4.964760303E0,3.731469870E0,5.824964046E-1
1.474089808E0,-3.153380394E0,3.641118526E0,1.768922329E0
1.493861163E0,-2.237720013E0,4.256859303E0,2.137873650E0
1.513630902E0,-2.237246037E0,3.784075737E0,2.493380785E0
1.533402308E0,-2.093626499E0,2.113762379E0,2.284925938E0
1.553172048E0,-1.557390213E0,1.253670216E0,2.145189285E0
1.572943402E0,-1.089926243E0,4.821472168E-1,2.384050369E0
1.592713142E0,-1.546547890E0,-1.073643208E0,2.928164482E0
1.612484548E0,-1.322287083E0,-5.691361427E-1,1.803930998E0
1.632254288E0,-8.752846718E-1,2.222819328E-1,-2.678685904E0
1.652025642E0,1.010982990E0,-6.868791580E-2,-4.621948242E0
1.671795433E0,6.583528042E0,-1.103857517E0,-3.223751545E0
1.691566788E0,6.921000481E0,-3.185749054E-3,-2.194288254E0
1.711336579E0,5.866079330E-1,1.697309971E0,2.578138351E0
1.731107933E0,-2.347151279E0,2.107610703E-1,-1.699685335E0
1.750877673E0,-3.615527630E0,-1.385283470E0,-7.117332458E0
1.770649079E0,-1.139584064E0,1.092416286E0,-7.948616505E0
1.790418819E0,-3.191724300E0,4.502558708E0,-4.458271503E0
1.810190173E0,-9.531318665E0,6.911160469E0,1.551969528E0
1.829959965E0,-9.561933517E0,4.466453075E0,4.309634209E0
1.849731319E0,-3.896665573E-2,1.106438637E0,1.133072567E1
1.869501110E0,-3.762221336E-1,-1.574083328E0,-4.820518017E0
1.889272465E0,2.511034966E0,-3.608360767E0,-8.234580994E0
1.909042204E0,1.932797432E-1,-9.198336601E-1,-6.687064648E0
1.928813610E0,1.448525429E0,-7.751760483E-1,2.849614024E-1
1.948583350E0,9.992804527E-1,5.275130272E-1,-3.206317425E0
1.968354756E0,1.241493225E-1,9.553680420E-1,-1.250868440E0
1.988124496E0,-6.278719902E-1,-9.751110077E-1,-3.408278227E-1
2.007895902E0,-1.067116261E0,-4.708735466E0,1.165756416E1
2.027665642E0,-1.445012093E-1,-3.303424835E0,2.837223053E0
2.047437048E0,-3.289203644E-1,-1.119828224E0,-1.736344099E0
2.067206788E0,1.164383888E-1,-7.328810692E-1,2.666260242E0
2.086978194E0,3.083376408E0,-1.665647030E0,1.140291810E0
2.106747933E0,2.647737503E0,-2.024881840E0,-9.334448576E-1
2.126519340E0,1.962637901E-1,-1.973283768E0,1.623548269E0
2.146289131E0,-2.023072243E-1,1.195259094E-1,-8.819062710E-1
2.166060485E0,4.452160835E0,6.801266670E-1,-2.078667879E-1
2.185830277E0,4.986576080E0,3.545457840E0,6.064293385E-1
2.205601631E0,3.698733807E0,3.300312996E0,6.735682011E0
2.225371423E0,8.097138405E0,5.266757011E-1,2.833024502E0
2.245142777E0,9.355361938E0,2.094882011E0,-6.212766171E-1
2.264912569E0,6.658597469E0,9.721312523E-1,2.035454512E0
2.284683975E0,-4.610681057E0,-3.014393806E0,1.911790133E0
2.304453715E0,-3.320504665E0,6.591162682E-1,5.705610275E0
2.324225121E0,1.520491982E1,5.754847050E0,-8.763965607E0
2.343994913E0,1.289985418E0,-1.631345272E0,-1.460410404E1
2.363766267E0,-1.497917557E1,-7.498371124E0,-6.253328800E0
2.383536058E0,-2.884044266E1,-7.777566910E0,-7.264966965E0
2.403307465E0,8.781900406E0,-4.848932266E0,8.328998566E0
2.423077256E0,1.822640419E1,-2.631176472E0,9.862583160E0
2.442848610E0,-8.809355736E0,3.621683121E-1,1.267728329E1
2.462618402E0,-6.390438080E-1,-2.722389221E0,1.512940049E0
2.482389808E0,-1.698015690E0,-1.075566769E0,5.067522049E0
2.502159600E0,-7.638404846E0,-3.833341599E-1,4.202199459E0
2.521931006E0,-1.138397026E1,-7.481784821E-1,-4.028940678E0
2.541700798E0,-7.001018524E-2,-2.499054909E0,-1.095915699E1
2.561472152E0,3.809749603E0,-4.277908325E0,-5.512890816E0
2.581241944E0,1.384310722E0,-1.511682510E0,2.440886974E0
2.601013350E0,3.466745853E0,1.150341988E0,-4.743957520E0
2.620783142E0,6.914381981E0,7.553534508E-1,-1.044925690E1
2.640554548E0,1.102602959E1,-2.316083908E-1,-5.268854618E0
2.660324340E0,9.235901833E0,-1.300178051E0,5.742743611E-1
2.680095694E0,7.620817661E0,-2.381613731E0,-7.292708158E-1
2.699865485E0,3.737668991E-1,-2.376852512E0,1.707543373E0
2.719636892E0,-7.386268139E0,-9.685239792E-1,2.994692326E0
2.739406683E0,-3.089312553E0,-8.979554176E-1,-5.730688572E0
2.759178090E0,-5.512707233E0,-6.275033951E-1,-3.156195879E0
2.778947881E0,-2.157948494E0,7.350306511E-1,-1.937294722E0
2.798719288E0,1.995401859E0,6.642971039E-1,-8.527853489E-1
2.818489079E0,1.526283264E0,1.735215664E0,-1.730100632E0
2.838260485E0,1.292228699E0,2.916572571E0,-1.887722492E0
2.858030277E0,3.111931801E0,4.574175358E0,-1.170034170E0
2.877801683E0,3.050245285E0,6.028498650E0,7.219003439E-1
2.897571475E0,1.129630566E0,4.460237980E0,9.752787352E-1
2.917342881E0,-6.548204422E-1,3.247056961E0,-2.101634502E0
2.937112673E0,-2.427065849E0,1.166731834E0,-9.062770605E-1
2.956884079E0,-2.439201832E0,3.700704575E-1,2.523617029E0
2.976653871E0,-2.950123787E0,-8.580341339E-1,-7.252106071E-1
2.996425277E0,1.104109049E0,-3.714438438E0,-9.209268689E-1
3.016195069E0,1.441794872E0,-3.719383240E0,1.214088559E0
3.035966475E0,-3.774183989E0,5.556812286E-1,6.751217842E-1
3.055736319E0,-5.574128151E0,1.376693726E0,-1.828162551E0
3.075507725E0,-3.948772669E0,-1.217746735E-2,6.896171570E-1
3.095277517E0,-3.780647039E0,8.930110931E-2,2.976581812E0
3.115048923E0,-1.963355064E0,-1.127267838E0,1.120875835E0
3.134818715E0,-6.751554012E-1,-2.186199188E0,6.261863708E-1
3.154590121E0,-3.650014400E-1,-2.430950165E0,2.122298241E0
3.174359913E0,1.141738892E-2,6.188528061E0,3.838265896E0
3.194131371E0,-1.876762867E0,1.396952057E1,-4.739628315E0
3.213901163E0,3.602838516E-1,6.329834938E0,-4.160322666E0
3.233672569E0,2.755338907E0,-4.835345268E0,2.854105711E0
3.253442360E0,3.282409430E0,-1.265603352E1,3.256889343E0
3.273213767E0,-4.657624960E-1,-5.041193008E0,2.842433929E0
3.292983610E0,-4.924181104E-1,1.461571693E0,-1.229945421E-1
3.312755017E0,-2.134175777E0,1.219054222E0,1.760988712E0
3.332524808E0,-4.860251427E0,-2.602533340E0,1.390573502E0
3.352296215E0,-8.077567101E0,-5.343293190E0,1.658296824E0
3.372066006E0,-1.111487103E1,-2.139699173E1,1.556980610E-1
3.391837465E0,-8.070055008E0,-1.317190170E1,-6.235778332E-1
3.411607256E0,8.407105207E-1,-3.353182793E0,-3.530900717E0
3.431378663E0,2.227843285E0,9.516048431E-2,-3.720148563E0
3.451148454E0,-6.676320732E-2,1.610742569E0,-3.783393621E0
3.470919913E0,-2.153890610E0,2.673772335E0,-4.218450069E0
3.490689704E0,-2.328862190E0,3.456583023E0,-5.587211132E0
3.510461110E0,-2.377979517E0,2.187543869E0,-4.832413673E0
3.530230954E0,-9.198560715E-1,7.502641678E-1,-4.298571587E0
3.550002360E0,1.610443354E0,3.792686462E-1,-3.597695112E0
3.569772152E0,2.193536282E0,1.712131023E0,-2.893270016E0
3.589543610E0,1.404866219E0,4.013412952E0,-2.537791014E0
3.609313402E0,2.270071745E0,4.303428173E0,-2.585545778E0
3.629084808E0,2.264078856E0,3.574169159E0,-2.481367826E0
3.648854652E0,1.421862721E0,2.518324375E0,-1.848476887E0
3.668626058E0,9.770421982E-1,2.744796753E0,-5.282301903E-1
3.688395850E0,-1.853395700E-1,2.344753265E0,2.580790997E0
3.708167308E0,-2.432260990E0,2.097944736E0,5.978748322E0
3.727937100E0,-6.601007462E0,2.055757046E0,7.434747696E0
3.747708558E0,-8.579024315E0,2.862289429E0,4.404787540E0
3.767478350E0,-7.199326992E0,4.947219372E0,1.589727402E-2
3.787249756E0,-1.391274929E0,3.522017002E0,-6.194367886E0
3.807019600E0,1.546504974E1,-1.653572464E1,1.099814415E0
3.826791006E0,2.437101126E0,-3.384484482E1,1.109731674E0
3.846560850E0,8.237599373E0,2.444476128E0,-1.683237457E1
3.866332256E0,1.409854126E1,1.516048336E1,2.339659691E0
3.886102100E0,-5.426136017E0,8.932862282E0,-1.685562325E1
3.905873506E0,-5.958316326E0,-7.799265862E0,-7.836220741E0
3.925643350E0,-5.247163296E0,-1.647430801E1,4.588290215E0
3.945414756E0,-4.892838478E0,-6.964115143E0,-9.348074198E-1
3.965184600E0,-1.493593693E0,3.260939598E0,-2.872029781E0
3.984956058E0,1.991003871E0,4.820595741E0,-1.229783535E0
4.004725850E0,7.651553154E-1,3.530384064E0,6.612765789E-2
4.024497308E0,-1.851168394E0,7.337493896E-1,-1.531239748E-1
4.044267152E0,-1.798754692E0,-9.766416550E-1,1.220618188E-1
4.064038558E0,1.144987226E0,-8.816442490E-1,1.780803561E0
4.083808402E0,1.723108053E0,1.183173180E0,2.732577801E0
4.103579860E0,2.354274504E-3,2.683979988E0,1.913078070E0
4.123349756E0,-2.060814619E0,2.448921204E0,1.400861382E0
4.143121110E0,-2.714850187E0,1.610954285E0,2.851447105E0
4.162890954E0,-1.834128857E0,1.692536354E0,4.934412003E0
4.182662413E0,-2.239936829E0,1.341796875E0,4.710266113E0
4.202432256E0,-3.404919147E0,4.432859421E-1,3.243010521E0
4.222203715E0,-4.455043316E0,-4.164218903E-1,2.208892345E0
4.241973610E0,-6.112750053E0,-1.877201080E0,1.890239000E0
4.261744965E0,-6.268364429E0,-3.484052658E0,3.106107950E0
4.281514808E0,-2.497132063E0,-3.115913391E0,5.163886070E0
4.301286267E0,2.688590527E0,-8.309364319E-1,6.498914242E0
4.321056110E0,2.100043774E0,-3.994398117E-1,6.278588295E0
4.340827569E0,-3.342267990E0,-2.243467331E0,4.587883472E0
4.360597413E0,-6.086948872E0,-6.043093681E0,2.837027907E-1
4.380368871E0,-7.731342316E-1,-8.854659081E0,-4.182639599E0
4.400138715E0,1.054503632E1,-5.154808044E0,-5.859085560E0
4.419910173E0,1.290669537E1,-4.787938118E0,-3.682096004E0
4.439680017E0,6.643043995E0,-9.449133873E0,-2.975599289E0
4.459451475E0,9.046654105E-1,-1.253476238E1,-1.245794654E0
4.479221423E0,-4.638756752E0,-6.713514328E0,5.018270016E-1
4.498992829E0,5.866815448E-1,-5.010774612E0,-2.991173267E0
4.518762725E0,4.369663239E0,-4.591948509E0,-5.298739433E0
4.538534131E0,5.544708729E0,-1.368788719E0,-1.073787594E1
4.558303975E0,6.533510685E0,2.784445763E0,-9.178518295E0
4.578075433E0,5.636675358E0,6.621198177E0,-7.420487404E0
4.597845277E0,3.795524836E0,7.819068432E0,-5.590995312E0
4.617616735E0,1.570929050E0,6.135570526E0,-4.999574661E0
4.637386631E0,-9.580415487E-1,4.647211075E0,-5.332017899E0
4.657158090E0,-3.667685032E0,4.265340805E0,-5.145598412E0
4.676927933E0,-3.731377125E0,5.737107754E0,-4.120590210E0
4.696699392E0,-2.059404850E0,7.397402763E0,-2.301379442E0
4.716469340E0,-1.082659960E0,6.898087978E0,5.128030777E-1
4.736240798E0,6.505578756E-1,4.305943489E0,4.401897907E0
4.756010590E0,3.179117918E0,8.434495926E-1,9.052150726E0
4.775782100E0,4.109598160E0,-2.788704872E0,9.967962265E0
4.795551996E0,3.125524521E0,-4.995936394E0,5.520838261E0
4.815323402E0,2.102594376E0,-3.032230377E0,1.500553608E0
4.835093350E0,1.842703581E0,4.285367966E0,2.083475113E0
4.854864756E0,5.234813690E0,7.963694572E0,-1.769060850E0
4.874634600E0,1.499459457E1,-1.013244629E0,-1.474306297E1
4.894406058E0,7.763172150E0,-1.939473724E1,1.854607391E1
4.914176006E0,-1.948509026E1,-1.994657707E1,-2.073386765E1
4.933947413E0,-3.254614830E0,3.270519257E0,-8.845199585E0
4.953717256E0,7.753054142E0,6.769588470E0,-2.096993208E0
4.973488715E0,-5.868676901E-1,1.164388657E0,-1.168122387E1
4.993258663E0,-1.357989788E0,-7.346586227E0,-4.182269573E0
5.013030069E0,-3.971675038E-1,-1.079684639E1,-3.589809656E0
5.032799913E0,-1.252979755E0,-5.752878189E0,-1.217170238E0
5.052571423E0,-2.075052261E-1,1.607484818E-1,-7.745258808E-1
5.072341267E0,3.457832336E-2,4.174332142E0,-9.995024204E-1
5.092112725E0,9.996111393E-1,4.010446548E0,2.836346030E-1
5.111882673E0,-1.555029988E0,1.836413383E0,-4.550389349E-1
5.131654079E0,-2.438972235E0,1.979999542E-1,-6.697887182E-1
5.151423923E0,-1.596369028E0,6.822805405E-1,1.613727689E0
5.171195433E0,-3.544164300E-1,1.172552109E0,3.827731609E0
5.190965277E0,-8.771737218E-1,2.121395588E0,5.101400375E0
5.210736735E0,-3.068342686E0,2.950626850E0,4.609361649E0
5.230506683E0,-5.325973511E0,3.516818047E0,2.065435171E0
5.250278090E0,-4.508566856E0,1.726988792E0,4.620500565E0
5.270047933E0,-8.856903315E-1,-1.133376122E0,4.965803146E0
5.289819444E0,1.739247799E0,-2.065917969E0,5.250669003E0
5.309589288E0,3.858959198E0,-1.570903778E0,5.271226883E0
5.329360746E0,3.394751310E0,-2.598237038E0,4.514787197E0
5.349130694E0,2.422396421E0,-2.899580956E0,4.588799477E0
5.368902100E0,2.762212753E0,-2.198466301E0,4.479188442E0
5.388671944E0,1.980530262E0,-2.140252113E0,4.635572910E0
5.408443454E0,-3.681089878E0,-4.963785172E0,2.020719767E0
5.428213298E0,-8.614712715E0,-6.491541862E0,7.691099048E-1
5.447984756E0,-6.953144550E0,-4.716387749E0,4.519487023E-1
5.467754704E0,-5.683883190E0,-3.688745499E0,-1.468085647E0
5.487526110E0,-3.880650520E0,-6.212926865E0,-1.323930025E0
5.507295954E0,-2.193588734E0,-9.584051132E0,-2.510194063E0
5.527067413E0,-2.639489174E-1,-1.034371471E1,-4.158152580E0
5.546837360E0,-1.490134954E0,-9.103937149E0,-4.070650101E0
5.566608767E0,-3.491571188E0,-8.161656380E0,-1.941066265E0
5.586378610E0,-3.885090590E0,-5.654260635E0,-2.201546192E0
5.606150069E0,-3.813765764E0,-1.525358200E0,-4.247842312E0
5.625920017E0,-4.147244453E0,2.514790535E0,-6.596759796E0
5.645691423E0,-3.696317196E0,5.680474758E0,-7.306131840E0
5.665461267E0,-2.227581501E0,6.334477901E0,-7.046330929E0
5.685232777E0,-3.690767288E-2,5.495097160E0,-6.056136131E0
5.705002673E0,1.777655125E0,5.316027164E0,-6.598199844E0
5.724774079E0,1.657144904E0,5.274433136E0,-7.756340504E0
5.744543923E0,6.135461330E-1,5.419983387E0,-7.515480518E0
5.764315381E0,1.985349178E0,4.886702061E0,-6.500858307E0
5.784085329E0,3.187309742E0,4.585443497E0,-4.737272739E0
5.803856735E0,3.358227015E0,4.255068779E0,-2.814316034E0
5.823626579E0,2.880594254E0,3.495122433E0,-1.478586197E-1
5.843398038E0,2.474374771E0,1.711434364E0,2.435113907E0
5.863167881E0,1.757161975E0,1.219103813E0,7.105252743E0
5.882939392E0,-3.063541889E0,3.191471100E-1,1.171230984E1
5.902709288E0,-1.036455059E1,-1.120440483E0,9.132238388E0
5.922480694E0,-1.107605743E1,-9.331922531E-1,7.463506222E0
5.942250538E0,-5.513403416E0,-9.379464149E0,5.284437180E0
5.962021996E0,1.080537438E0,-2.341511917E1,-1.711894417E1
5.981791840E0,1.603670120E1,-2.801043510E0,-8.966034889E0
6.001563298E0,1.622541428E1,9.298757553E0,-1.543986559E0
6.021333246E0,-9.122567177E0,6.497007370E0,-7.665383816E0
6.041104652E0,-9.737293243E0,-6.827997208E0,-2.068005371E1
6.060874496E0,-2.447482824E0,-1.337369347E1,3.205145836E0
6.080645954E0,-3.854316235E0,-9.716667175E0,2.150964499E0
6.100415798E0,-2.275663376E0,-1.021285057E0,-4.127133369E0
6.120187256E0,5.690515637E-1,3.817791462E0,-8.005954027E-1
6.139957100E0,1.616007805E0,4.375185013E0,2.434937954E-1
6.159728610E0,-2.235737562E0,1.397289276E0,-4.203326702E-1
6.179498506E0,-5.335467339E0,-2.863359451E0,6.012473106E-1
6.199269913E0,-3.912047386E0,-2.687592506E0,1.520211697E0
6.219039756E0,-1.308293343E0,1.696108818E0,2.304275990E0
6.238811215E0,1.617799520E0,4.616322517E0,3.266058445E0
6.258581058E0,1.399079204E0,4.420168877E0,3.480934858E0
6.278352517E0,-4.032191634E-1,2.443688393E0,2.322556496E0
6.298122360E0,-1.875103235E0,1.059827805E0,1.442244768E0
6.317893819E0,-1.793292046E0,5.094881058E-1,2.129319191E0
6.337663767E0,-2.135416985E0,3.186149597E-1,3.939053535E0
6.357435121E0,-3.308919430E0,4.794483185E-1,5.081652641E0
6.377205069E0,-3.167228222E0,5.929203033E-1,5.308309555E0
6.396976475E0,-1.308212042E0,-2.440156937E-1,5.821756363E0
6.416746319E0,-9.508002996E-1,-1.185970306E0,4.309352875E0
6.436517777E0,-2.930370569E0,-2.227625847E0,3.377490044E0
6.456287621E0,-1.264462471E0,-2.460083008E0,4.649761677E0
6.476059079E0,1.829249859E0,-8.859481812E-1,5.475750446E0
6.495828923E0,-1.308134437E0,-1.145827293E0,3.662594318E0
6.515600381E0,-6.548712730E0,-5.254948616E0,1.069177032E0
6.535370225E0,-1.063561153E1,-8.222069740E0,-8.980422616E-1
6.555141683E0,-6.958862305E0,-6.525774002E0,-7.744240284E0
6.574911527E0,4.822602749E0,-6.679496765E0,-7.190921307E0
6.594682985E0,5.844460011E0,-1.039772320E1,-3.666718960E0
6.614452933E0,5.463292599E-1,-1.275446510E1,-2.124718904E0
6.634224288E0,-3.217631578E0,-9.427239418E0,-3.503115177E-1
6.653994235E0,-2.622863054E0,-4.549705505E0,-1.116689801E0
6.673765642E0,-7.586249113E-1,-2.842941284E0,-3.117815256E0
6.693535538E0,-2.816680074E-1,-2.116896629E0,-6.165772438E0
6.713306944E0,5.266523361E-1,1.357727051E-1,-8.276089668E0
6.733076840E0,1.061217546E0,3.924139500E0,-8.623712540E0
6.752848246E0,1.008180141E0,8.121147156E0,-8.168767929E0
6.772618090E0,4.270050526E-1,9.857229233E0,-7.203466415E0
6.792389548E0,6.779286861E-1,7.902367592E0,-7.132243633E0
6.812159392E0,1.613709450E0,4.799448013E0,-7.762000084E0
6.831930850E0,2.611159325E0,3.093129635E0,-7.243876934E0
6.851700694E0,2.549656391E0,3.125275135E0,-5.461781979E0
6.871472152E0,2.435112000E0,3.164913177E0,-3.403187752E0
6.891241996E0,2.285598755E0,3.219018936E0,-9.918141365E-1
6.911013454E0,9.418250918E-1,2.891666412E0,1.618669033E0
6.930783298E0,-6.033802032E-1,1.497805595E0,4.542147160E0
6.950554756E0,-2.365887165E0,-9.637832642E-1,7.798058510E0
6.970324600E0,-3.094343185E0,-3.345143318E0,9.114232063E0
6.990096058E0,-3.910993576E0,-3.481970787E0,7.046492100E0
7.009865902E0,-3.488002300E0,2.242460251E-1,3.994616985E0
7.029637360E0,-3.382342577E0,6.237870216E0,3.926870823E0
7.049407204E0,-2.241286755E0,9.184614182E0,1.063592911E0
7.069178663E0,4.561914444E0,1.578536034E0,-1.873637772E1
7.088948506E0,1.257592010E1,-2.367950439E1,4.957808018E0
7.108719965E0,1.867722869E-1,-3.614556122E1,6.810817242E0
7.128489860E0,4.639073372E0,9.575633049E0,-2.267676163E1
7.148261267E0,1.380328369E1,1.653139496E1,3.039868355E0
7.168031163E0,-6.700700760E0,6.646720886E0,-1.524773407E1
7.187802569E0,-1.017093468E1,-8.562767029E0,-9.907992363E0
7.207572465E0,-4.311336517E0,-1.718737984E1,5.179171562E0
7.227343871E0,-3.164599419E0,-6.318897247E0,-4.113981724E-1
7.247113767E0,4.602997899E-1,4.720980644E0,-1.704899788E0
7.266885121E0,2.770835876E0,6.968272209E0,-9.194706678E-1
7.286655069E0,1.920493364E0,4.952434540E0,-3.860744834E-1
7.306426423E0,-2.256553650E0,5.670795441E-1,-4.689783752E-1
7.326196267E0,-2.332009077E0,-2.271175385E0,1.648845375E-1
7.345967725E0,6.684848666E-1,-1.150529861E0,1.712625146E0
7.365737569E0,2.125278234E0,1.689126015E0,2.764837742E0
7.385509027E0,2.555880308E0,2.995015621E0,3.510157108E0
7.405278871E0,-1.677625179E-1,3.553739548E0,3.563180923E0
7.425050329E0,-2.920268059E0,2.880636692E0,2.468113184E0
7.444820173E0,-4.093543530E0,1.430333138E0,5.759009123E-1
7.464591631E0,-2.843355656E0,9.819240570E-1,8.036061525E-1
7.484361475E0,-5.323795676E-1,1.171545982E0,4.240587234E0
7.504132933E0,1.718058467E0,1.413345337E-2,4.464253426E0
7.523902777E0,2.789142847E0,-1.324774742E0,3.568487883E0
7.543674235E0,1.074200273E0,-1.454411507E0,4.050761223E0
7.563444079E0,-1.776595592E0,-1.785190582E0,4.514836311E0
7.583215538E0,-2.610954046E0,-2.338912010E0,4.197723866E0
7.602985381E0,-1.147273421E0,-2.858734131E0,4.444282532E0
7.622756840E0,-9.779047966E-1,-3.979726791E0,4.714074135E0
7.642526735E0,-2.220986605E0,-6.184669495E0,2.625385761E0
7.662298142E0,-1.494644880E0,-4.506220818E0,1.778596640E0
7.682068038E0,1.691454947E-1,-3.594915390E0,8.283740282E-2
7.701839392E0,2.746460438E0,-3.692875862E0,-2.265819788E0
7.721609235E0,1.772168159E0,-5.931601524E0,-9.876345396E-1
7.741380694E0,-1.831502914E-1,-8.202119827E0,-2.541938543E0
7.761150538E0,-1.314159155E0,-8.646730423E0,-2.387174368E0
7.780921996E0,-2.316219807E0,-8.084540367E0,-2.671660900E0
7.800691840E0,-6.713743210E-1,-6.870535851E0,-3.448325634E0
7.820463298E0,1.705156088E0,-4.614137650E0,-3.995386124E0
7.840233142E0,2.182900906E0,-1.701599121E0,-5.266881943E0
7.860004600E0,1.435896039E0,1.007794380E0,-5.795385838E0
7.879774496E0,4.633501172E-1,3.817341805E0,-5.826050758E0
7.899545902E0,7.204569578E-1,6.170657635E0,-6.287115574E0
7.919315798E0,7.526866198E-1,7.234277248E0,-6.360570908E0
7.939087152E0,3.453863263E-1,7.079852581E0,-7.086563587E0
7.958856996E0,8.715862036E-1,7.169191360E0,-7.118551254E0
7.978628454E0,3.856990933E-1,7.313697815E0,-6.720756531E0
7.998398298E0,1.263419390E-1,6.944825172E0,-5.635912418E0
8.018169756E0,5.225563645E-1,6.315583229E0,-3.879245996E0
8.037939600E0,6.255605817E-1,5.139888287E0,-1.058977842E0
8.057711006E0,9.440704584E-1,3.564768791E0,2.838621378E0
8.077480850E0,1.659147620E0,3.276405334E-1,8.263200760E0
8.097252308E0,2.740293503E0,-4.964782715E0,1.186773205E1
8.117022152E0,1.371600747E0,-1.036967850E1,1.092470646E1
8.136793610E0,-1.190149069E0,-8.731389046E0,5.695047379E0
8.156563454E0,-1.302620888E0,1.289851189E0,9.188146591E-1
8.176334913E0,-5.417726040E-1,9.824158669E0,2.594326019E0
8.196104808E0,2.656705379E0,8.342663765E0,-8.070957661E-1
8.215876163E0,1.159200287E1,-2.571255684E0,-1.490614796E1
8.235646006E0,5.767797470E0,-1.677661133E1,8.587934494E0
8.255417465E0,-9.297496796E0,-1.714763641E1,-1.469235611E1
8.275187308E0,3.843011856E-1,3.729070663E0,-4.905849934E0
8.294958767E0,2.306998730E0,7.141967773E0,-2.944738388E0
8.314728558E0,-5.107814312E0,1.794295311E0,-1.269669342E1
8.334500017E0,-3.289174080E0,-5.617486954E0,-1.883434534E0
8.354269860E0,-2.336400986E0,-8.327982903E0,-9.104986191E-1
8.374041319E0,-1.273212075E0,-3.901682854E0,-1.458591700E0
8.393811163E0,3.859171867E-1,1.757554054E0,-1.296921730E0
8.413582621E0,1.383146524E0,4.494469643E0,-4.756580591E-1
8.433352413E0,6.654538512E-1,4.119406700E0,1.798077226E-1
8.453123871E0,-2.064473629E0,2.234959126E0,1.116892397E-1
8.472893715E0,-3.056414843E0,4.393825531E-1,2.121694386E-1
8.492665173E0,-2.226813078E0,5.485525131E-1,8.085476160E-1
8.512435017E0,-1.429409087E-1,1.523385048E0,2.249046564E0
8.532206423E0,6.520861983E-1,1.202694893E0,3.207966328E0
8.551976267E0,-7.162126303E-1,1.738656998E0,2.953022480E0
8.571747725E0,-1.736311078E0,1.894384384E0,2.995334148E0
8.591517569E0,-1.843921185E0,-2.171936035E-1,4.310984135E0
8.611289027E0,-7.700716853E-1,-9.715538025E-1,4.453353882E0
8.631058819E0,-4.641557634E-1,-7.902412415E-1,5.518521309E0
8.650830277E0,-3.148756027E0,-1.607589722E0,5.376767635E0
8.670600121E0,-3.428196430E0,-2.552841187E0,4.550982952E0
8.690371579E0,-1.190310001E0,-1.782574654E0,2.770149469E0
8.710141423E0,-9.282852411E-1,-3.008537292E0,2.375309229E0
8.729912829E0,1.468354940E0,-4.904785156E0,5.282969475E0
8.749682673E0,2.969066620E0,-3.949519157E0,5.803534508E0
8.769454131E0,1.521576643E-1,-4.425601006E0,4.180485725E0
8.789223975E0,-4.281532764E0,-3.935249329E0,3.545455933E0
8.808995433E0,-8.258899689E0,-2.466169357E0,8.469711542E-1
8.828765329E0,-6.306837082E0,-4.660457611E0,-2.257515430E0
8.848536683E0,1.757249475E0,-5.954079628E0,-4.078343868E0
8.868306527E0,2.660279512E0,-7.898161888E0,-2.875849962E0
8.888077985E0,3.990192115E-1,-8.384876251E0,-1.663402081E0
8.907847829E0,-1.702380538E0,-7.417176247E0,-1.529629946E0
8.927619235E0,-2.304256439E0,-5.808727264E0,-2.666051388E0
8.947389079E0,-5.442616940E-1,-5.077541351E0,-3.571396589E0
8.967160538E0,1.419214725E0,-3.727142334E0,-4.992931843E0
8.986930381E0,1.423011303E0,-2.454404831E-1,-6.265910625E0
9.006701840E0,6.968430877E-1,3.742069244E0,-6.936887264E0
9.026471631E0,3.748302460E-1,7.631365776E0,-7.608512402E0
9.046243090E0,5.699632168E-1,9.309610367E0,-6.858111858E0
9.066012933E0,4.255391359E-1,7.302232742E0,-7.004746914E0
9.085784392E0,1.008799195E0,5.187801361E0,-7.913561344E0
9.105554288E0,9.872845411E-1,4.110596180E0,-7.917030334E0
9.125325642E0,1.988825798E-1,4.826620579E0,-6.799614906E0
9.145095485E0,7.048671246E-1,6.062353611E0,-5.088870525E0
9.164866944E0,1.378583431E0,6.348825455E0,-2.583230495E0
9.184636840E0,1.299715638E0,4.964937687E0,2.194147587E0
9.204408194E0,1.149104953E0,1.382021427E0,9.593968391E0
9.224178038E0,3.050163269E0,-3.729258537E0,1.290356159E1
9.243949496E0,3.748907566E0,-1.016759586E1,1.215319443E1
9.263719340E0,2.944195271E-2,-9.753249168E0,5.854366302E0
9.283490746E0,-3.825854063E0,1.131384850E0,1.208800793E0
9.303260590E0,-1.436791062E0,1.073018837E1,4.583610058E0
9.323032048E0,3.813062191E0,4.793142319E0,-1.789173603E0
9.342801892E0,5.419515133E0,-9.708526611E0,-1.394103050E1
9.362573298E0,-1.187574863E0,-2.287142181E1,2.343595505E0
9.382343142E0,-3.577589989E0,-2.560247421E0,-1.921333504E1
9.402114600E0,7.806926727E0,6.031044006E0,2.629253864E0
9.421884444E0,-3.568449259E0,9.449224472E-1,-1.576976776E1
9.441655850E0,-3.484293938E0,-4.605822563E0,-5.064509392E0
9.461425694E0,-1.894602060E0,-7.643138885E0,-1.307223082E0
9.481197152E0,-3.306113482E0,-5.764950752E0,-2.655825377E0
9.500966996E0,-2.095937252E0,-1.883794785E0,-1.125805616E0
9.520738402E0,-4.897077382E-2,2.256363869E0,-2.059830427E-1
9.540508246E0,3.775694668E-1,4.285014153E0,7.260555029E-1
9.560279704E0,-1.184081674E0,3.859324455E0,3.871883154E-1
9.580049600E0,-2.955345154E0,1.845787048E0,-4.441246390E-2
9.599820954E0,-2.075866938E0,6.841182709E-2,7.700232267E-1
9.619590798E0,-9.325597286E-1,3.500871658E-1,1.987458706E0
9.639362256E0,9.645792842E-2,1.685517311E0,2.925355434E0
9.659132048E0,7.519955635E-1,3.181658745E0,3.396961689E0
9.678903506E0,-3.745379299E-2,3.933892250E0,2.765312433E0
9.698673350E0,-1.688932776E0,3.381337166E0,2.913751841E0
9.718444808E0,-2.637174129E0,1.408681870E0,3.127700567E0
9.738214600E0,-1.625108004E0,7.338809967E-2,3.552690506E0
9.757986058E0,-8.633332849E-1,-1.176719666E-1,3.920275927E0
9.777755902E0,-3.237164497E0,-1.349005699E0,3.945380211E0
9.797527308E0,-2.321280956E0,-3.981210709E0,5.155571461E0
9.817297152E0,-2.914994359E-1,-3.412598610E0,3.980125427E0
9.837068610E0,-4.363603592E-1,-2.535103798E0,3.191777229E0
9.856838402E0,-6.833378077E-1,-4.038236618E0,5.090977192E0
9.876609860E0,4.310702085E-1,-3.819540977E0,5.735351086E0
9.896379704E0,-1.495472431E0,-3.932231903E0,4.050072670E0
9.916151110E0,-5.209800720E0,-5.501374245E0,1.736872911E0
9.935920954E0,-5.717530251E0,-4.194892883E0,1.523880482E0
9.955692413E0,-3.068795204E0,-4.037267685E0,-1.392347097E0
9.975462204E0,3.781756639E0,-3.988732338E0,-2.632247210E0
9.995233663E0,2.913566828E0,-6.196285248E0,-9.941992760E-1
1.001500351E1,-1.877148747E-1,-8.303271294E0,-2.253957272E0
1.003477491E1,-1.923577785E0,-8.627497673E0,-1.772830486E0
1.005454476E1,-2.702004194E0,-7.513569832E0,-2.865079641E0
1.007431622E1,-1.169348836E0,-6.237336159E0,-3.491501808E0
1.009408601E1,7.103390694E-1,-4.707826614E0,-4.114128113E0
1.011385746E1,1.182549477E0,-2.124588966E0,-5.409467220E0
1.013362731E1,1.050107956E0,1.633126259E0,-5.802005768E0
1.015339872E1,6.144729257E-1,5.631454468E0,-6.588834763E0
1.017316856E1,8.530258536E-1,8.309486389E0,-7.213661671E0
1.019293996E1,6.068348885E-2,8.493569374E0,-6.748756409E0
1.021270981E1,5.970454216E-2,7.232424736E0,-7.656549931E0
1.023248127E1,1.134845972E0,5.769657135E0,-8.274164200E0
1.025225106E1,9.270907640E-1,5.001138687E0,-7.888073921E0
1.027202252E1,2.736874819E-1,5.366722107E0,-6.178477287E0
1.029179241E1,9.327586889E-1,5.404066563E0,-3.973254681E0
1.031156377E1,1.189184666E0,4.505609512E0,1.457836628E-1
1.033133361E1,1.256675959E0,2.751101494E0,6.370990753E0
1.035110502E1,1.213992238E0,-8.856992722E-1,1.233220673E1
1.037087486E1,1.234462261E0,-5.736752510E0,1.211066055E1
1.039064627E1,1.514799356E0,-8.485289574E0,8.089093208E0
1.041041611E1,1.250470281E0,-3.679222107E0,3.173545361E0
1.043018757E1,4.653726101E0,3.667753220E0,-1.367797852E-1
1.044995736E1,1.060441494E1,-3.904533386E-2,1.887162685E0
1.046972882E1,1.118784904E1,-1.056408310E1,-1.047082233E1
1.048949861E1,-7.652700901E0,-4.909425735E0,-2.933151722E0
1.050927007E1,-7.383594513E0,-2.739947319E0,-8.506534576E0
1.052903986E1,-3.790946007E0,-5.158367157E-1,-8.398271561E0
1.054881132E1,-2.113051891E0,-1.323827744E0,-8.198171616E0
1.056858111E1,-3.087071896E0,-4.302612305E0,-3.549279213E0
1.058835257E1,-3.460555553E0,-6.259249687E0,-3.921158314E0
1.060812247E1,-9.676879644E-2,-3.469402313E0,-1.247272491E0
1.062789382E1,1.580714464E0,1.172890663E0,-6.181380749E-1
1.064766366E1,1.671033740E0,4.238850594E0,-1.441528797E0
1.066743507E1,-3.966985047E-1,3.751925468E0,-1.227732897E0
1.068720491E1,-2.870990992E0,1.190447807E0,1.099615693E-1
1.070697632E1,-3.513256550E0,-2.400856018E-1,9.324007481E-2
1.072674616E1,-2.756741285E0,7.186584473E-1,6.998308897E-1
1.074651757E1,-1.299658656E0,1.649819374E0,2.676348925E0
1.076628741E1,-7.009072602E-2,1.452901840E0,4.072878838E0
1.078605887E1,-4.800081253E-3,1.639709473E0,3.370676041E0
1.080582866E1,-3.791420162E-1,1.959826469E0,2.805571556E0
1.082560012E1,-1.642933249E0,9.051685333E-1,4.451232910E0
1.084536991E1,-2.727480412E0,4.820871353E-1,4.773309231E0
1.086514137E1,-1.788529396E0,9.008378983E-1,4.652573109E0
1.088491116E1,-2.956725597E0,-2.868623734E-1,4.996336937E0
1.090468262E1,-5.237061024E0,-3.014743805E0,4.899536610E0
1.092445246E1,-2.084001780E0,-3.621094704E0,5.404796600E0
1.094422387E1,2.185966015E0,-2.418242455E0,3.034952641E0
1.096399372E1,1.201635838E0,-1.751374245E0,4.374214649E0
1.098376512E1,4.089927673E-1,-1.758922577E0,6.222889423E0
1.100353496E1,7.742536068E-2,-2.453077316E0,4.875951767E0
1.102330637E1,-2.528074265E0,-4.139986038E0,2.429194927E0
1.104307622E1,-6.117807388E0,-6.561888695E0,9.740352035E-1
1.106284767E1,-8.819862366E0,-8.019375801E0,-3.572301865E0
1.108261746E1,-2.629972935E0,-8.796690941E0,-6.458357334E0
1.110238892E1,1.543896675E0,-1.056587410E1,-2.191064596E0
1.112215872E1,-8.619509339E-1,-1.189214897E1,-1.824334264E0
1.114193017E1,-4.422795296E0,-9.212941170E0,-2.590261698E0
1.116169996E1,-5.041969776E0,-5.657450676E0,-2.699652433E0
1.118147142E1,-2.681592464E0,-4.236556053E0,-4.087177277E0
1.120124127E1,-5.669443607E-1,-2.698288918E0,-5.886465073E0
1.122101267E1,-4.341268539E-2,5.361595154E-1,-8.019503593E0
1.124078252E1,-4.530175328E-1,4.749619484E0,-8.134757996E0
1.126055392E1,-5.454515815E-1,8.615594864E0,-8.409930229E0
1.128032377E1,-7.194566727E-2,9.613498688E0,-6.645318508E0
1.130009517E1,7.655462027E-1,6.188745499E0,-6.145317554E0
1.131986502E1,9.778620005E-1,3.928098202E0,-7.080592632E0
1.133963648E1,1.416535378E0,3.731227875E0,-6.877878666E0
1.135940627E1,2.429675579E0,4.305663109E0,-5.518307209E0
1.137917767E1,3.070975304E0,5.148894787E0,-4.041285038E0
1.139894752E1,2.874691963E0,5.623030663E0,-2.752194166E0
1.141871898E1,1.697926044E0,4.149416924E0,-7.913875580E-2
1.143848877E1,1.668906569E0,8.494224548E-1,4.946016312E0
1.145826022E1,9.305195808E-1,-2.799984932E0,1.046833229E1
1.147803002E1,-2.631767750E0,-5.416919708E0,1.333096695E1
1.149780148E1,-7.584330082E0,-3.281844139E0,8.573446274E0
1.151757127E1,-8.774136543E0,2.964522362E0,2.493847847E0
1.153734272E1,-6.864836216E0,8.943593979E0,-2.237965822E0
1.155711252E1,-8.137583733E-2,4.664521217E0,-4.513297081E0
1.157688398E1,1.096767712E1,-1.795162964E1,-2.465521336E0
1.159665377E1,-2.589461327E0,-2.739724159E1,-4.084349632E0
1.161642522E1,8.039540291E0,4.925180435E0,-1.159596252E1
1.163619502E1,8.627202034E0,9.170163155E0,-6.183872223E-1
1.165596648E1,-3.644558430E0,1.108105659E0,-1.866862106E1
1.167573632E1,-5.224492550E0,-7.978332520E0,-2.492138386E0
1.169550772E1,-6.925426006E0,-1.109755707E1,5.075414181E-1
1.171527752E1,-1.533648491E0,-5.754195213E0,-8.025064468E-1
1.173504898E1,7.698843479E-1,2.233772278E0,-1.242666483E0
1.175481877E1,2.354254723E0,5.353934288E0,7.782415152E-1
1.177459022E1,-3.235337138E-1,4.681453705E0,-4.561275244E-2
1.179436012E1,-4.130204678E0,-5.161228180E-1,2.341998816E-1
1.181413148E1,-2.449537754E0,-3.257018089E0,1.539029479E0
1.183390127E1,-3.474134207E-2,-5.443162918E-1,2.300714731E0
1.185367273E1,2.096282005E0,3.353446960E0,3.750473022E0
1.187344252E1,3.081517935E0,4.212833405E0,4.589243412E0
1.189321398E1,4.439980388E-1,3.591454983E0,3.765963078E0
1.191298377E1,-2.017927647E0,2.685351372E0,3.444138527E0
1.193275523E1,-2.742140293E0,2.543471336E0,2.320871830E0
1.195252502E1,-3.000404835E0,2.019685268E0,1.423167229E0
1.197229648E1,-2.652708054E0,1.181164742E0,3.191272497E0
1.199206627E1,-1.794043064E0,-2.828922272E-1,6.233840942E0
1.201183773E1,-1.270230770E0,-1.711961746E0,4.922715664E0
1.203160752E1,-3.856774330E0,-3.245125771E0,3.041964293E0
1.205137898E1,-4.319212914E0,-5.227914810E0,5.201523781E0
1.207114877E1,-1.155939341E0,-3.401192665E0,6.170697212E0
1.209092023E1,3.517556190E-2,-2.895006180E0,4.320058346E0
1.211069002E1,-2.950464725E0,-4.864094734E0,2.236369848E0
1.213046148E1,-6.030173302E0,-6.656219482E0,1.374983311E0
1.215023127E1,-2.679390907E0,-7.098765373E0,-1.761147261E0
1.217000273E1,5.848949432E0,-5.770142555E0,-4.247411728E0
1.218977252E1,7.332602978E0,-6.807291031E0,-2.413010836E0
1.220954392E1,3.806162834E0,-9.155074120E0,-2.214098454E0
1.222931377E1,-4.326062277E-2,-9.353322029E0,-1.154033899E0
1.224908517E1,-8.700771928E-1,-6.095100403E0,-1.490486503E0
1.226885502E1,3.756122828E0,-3.350525856E0,-3.164417505E0
1.228862648E1,4.633892536E0,-5.003156662E-1,-4.626203537E0
1.230839627E1,3.562969446E0,1.811769485E0,-6.283077240E0
1.232816650E1,3.071758747E0,3.122461319E0,-6.528847694E0
1.234793630E1,2.009803057E0,5.423281670E0,-6.573713303E0
1.236770776E1,5.951433182E-1,7.458046913E0,-5.622640610E0
1.238747755E1,-3.652052879E-1,5.817461014E0,-5.678657055E0
1.240724900E1,2.726066113E-1,4.112475395E0,-6.592955589E0
1.242701890E1,-9.289085865E-2,4.416094780E0,-7.107734680E0
1.244679026E1,-9.160518050E-1,5.890725136E0,-6.415649414E0
1.246656010E1,-5.124762058E-1,7.561318398E0,-5.514063358E0
1.248633150E1,4.211946726E-1,8.215373039E0,-3.616230965E0
1.250610135E1,5.594720244E-1,6.664205551E0,4.734003544E-1
1.252587276E1,9.951927662E-1,2.929714203E0,7.735501289E0
1.254564260E1,2.912465334E0,-3.450842857E0,1.585654926E1
1.256541406E1,1.507325649E0,-1.186590576E1,1.670509148E1
1.258518385E1,-6.964927912E-2,-1.247258759E1,7.743709087E0
1.260495531E1,6.156158447E-1,9.064269066E-1,1.910243034E0
1.262472510E1,5.059700966E0,1.036541843E1,5.290055275E-1
1.264449656E1,1.023400688E1,-5.369758606E-1,-9.879151344E0
1.266426645E1,6.996412754E0,-1.328877258E1,-1.117658043E1
1.268403781E1,-3.543742657E0,-1.293385601E1,-7.689285278E-1
1.270380828E1,-1.849447727E0,4.091794014E0,-1.582216740E1
1.272357974E1,3.336907387E0,5.239888191E0,-7.121932507E-1
1.274334953E1,-3.033649921E0,-1.630774498E0,-1.026839066E1
1.276312098E1,-5.078383446E0,-7.940745354E0,-2.936201096E0
1.278289078E1,-3.475772858E0,-1.017243576E1,-2.621843815E0
1.280266224E1,-1.707193136E0,-4.982040405E0,-1.714977264E0
1.282243208E1,2.377790809E-1,9.006996155E-1,-1.073667049E0
1.284220348E1,1.887828350E0,4.052956581E0,-2.280892372E0
1.286197333E1,2.860095978E0,4.429103851E0,-9.818271399E-1
1.288174479E1,1.821140766E0,2.899796009E0,-3.375502229E-1
1.290151463E1,-3.335380554E-1,1.538019180E-1,-2.962368131E-1
1.292128604E1,-3.448351622E-1,-1.119602203E0,7.811225057E-1
1.294105588E1,-9.073985219E-1,-2.080554962E-1,2.134163141E0
1.296082734E1,-1.226091385E0,1.903540134E0,3.246873856E0
1.298059713E1,-1.196227431E0,2.678416252E0,4.456463814E0
1.300036859E1,-2.030789137E0,2.286466599E0,5.055423260E0
1.302013843E1,-3.046910286E0,7.510385513E-1,3.614244461E0
1.303990984E1,-1.711241126E0,2.759456635E-2,2.817303181E0
1.305967968E1,1.340057254E0,1.528786182E0,5.249719143E0
1.307945114E1,1.456015468E0,4.448270798E-1,6.762113571E0
1.309922098E1,-5.725249052E-1,-2.678782463E0,4.884935856E0
1.311899239E1,-3.053282499E-1,-3.200779915E0,4.053497314E0
1.313876224E1,3.322735429E-1,-2.330249786E0,3.594527960E0
1.315853369E1,1.375398040E0,-2.283549309E0,4.351085663E0
1.317830354E1,7.100905180E-1,-2.729554176E0,4.584828377E0
1.319807494E1,-2.240792036E0,-6.728960037E0,1.487187862E0
1.321784479E1,-3.184077263E0,-9.492354393E0,1.821706533E0
1.323761625E1,-3.391438484E0,-7.160432816E0,1.269664884E0
1.325738609E1,-2.889444232E-1,-3.110756874E0,-1.266843081E-2
1.327715750E1,-1.313919067E0,-3.707249641E0,-6.362766623E-1
1.329692734E1,-3.313148975E0,-6.761547089E0,-2.920379877E0
1.331669880E1,-2.619095802E0,-8.747888565E0,-3.956366301E0
1.333646864E1,-6.997014284E-1,-7.979006767E0,-3.883864880E0
1.335624005E1,1.203302622E0,-6.188113213E0,-2.460575104E0
1.337600989E1,1.689318180E0,-3.406418800E0,-2.821539402E0
1.339578135E1,1.628245950E0,-3.978347778E-2,-4.450839996E0
1.341555119E1,2.880901396E-1,3.009551048E0,-5.493972778E0
1.343532265E1,-1.277938604E0,5.992900848E0,-5.901269913E0
1.345509244E1,-1.030928135E0,7.717224121E0,-5.883757591E0
1.347486390E1,-5.301040411E-1,6.949620247E0,-5.745595455E0
1.349463375E1,-2.237608433E-1,5.470617294E0,-6.091157913E0
1.351440520E1,5.009182692E-1,4.950371742E0,-6.630871773E0
1.353417500E1,1.858543158E-1,5.359166145E0,-6.514397144E0
1.355394645E1,-4.507982731E-1,5.894763470E0,-5.723851204E0
1.357371630E1,-1.709557772E-1,6.140996933E0,-3.927752018E0
1.359348776E1,4.900577068E-1,5.418987751E0,-8.538246155E-3
1.361325765E1,1.256052017E0,4.125066757E0,5.126899242E0
1.363302901E1,2.080401421E0,1.869975567E0,1.014652443E1
1.365279885E1,2.734930515E0,-1.703599930E0,1.107553673E1
1.367257031E1,1.922233343E0,-6.138858795E0,9.960391998E0
1.369234020E1,-5.619525909E-4,-5.548325539E0,4.584603786E0
1.371211156E1,2.762493849E0,-1.897640228E0,1.061207771E0
1.373188140E1,1.133520317E1,-8.841731071E0,8.017915726E0
1.375165286E1,2.858134508E0,-1.872119522E1,-8.649567604E0
1.377142276E1,-8.083927155E0,4.203052998E0,-2.127778244E1
1.379119411E1,-3.665077686E-1,9.683917999E0,1.760087967E0
1.381096395E1,-9.042459488E0,1.355414391E0,-1.106781483E1
1.383073541E1,-7.440869331E0,-6.166654587E0,-1.120504189E1
1.385050526E1,-1.217453718E0,-1.218078041E1,1.448726654E-2
1.387027666E1,-2.558538437E0,-9.264439583E0,-1.557101965E0
1.389004651E1,-3.671646118E-4,-2.123364449E0,-2.718257666E0
1.390981796E1,1.643401027E0,3.811850548E0,-1.713467360E0
1.392958781E1,2.022431374E0,5.599150658E0,-4.078715444E-1
1.394935921E1,-8.612400293E-1,3.626915932E0,-1.353177428E-1
1.396912906E1,-4.050369740E0,-2.765970230E-1,-3.571469784E-1
1.398890052E1,-4.205486298E0,-2.682865143E0,1.397130251E0
1.400867036E1,-3.291668415E0,-4.534769058E-1,2.639081955E0
1.402844177E1,-1.278511763E0,2.377373219E0,3.531480312E0
1.404821161E1,3.046526909E-1,3.192904472E0,4.084445000E0
1.406798307E1,3.426638842E-1,3.044145584E0,3.127895355E0
1.408775291E1,-8.165378571E-1,2.409033298E0,2.663333416E0
1.410752432E1,-2.226804256E0,1.688932896E0,2.609599113E0
1.412729416E1,-1.928277373E0,5.443029404E-1,3.360531807E0
1.414706562E1,-1.072501421E0,-7.619276047E-1,4.730871201E0
1.416683552E1,-1.698583007E0,-1.098075867E0,4.775094986E0
1.418660687E1,-2.306538343E0,-1.507461548E0,5.533440113E0
1.420637671E1,-2.240736246E0,-2.367830276E0,5.573767662E0
1.422614817E1,-2.883814335E0,-1.932000160E0,4.588743210E0
1.424591796E1,-3.778841496E0,-3.215431213E0,4.044475555E0
1.426568942E1,-3.554569483E0,-4.994613647E0,3.541102171E0
1.428545927E1,-4.500000954E0,-6.134849548E0,1.867897868E0
1.430523073E1,-7.792233467E0,-8.000718117E0,5.306841135E-1
1.432500052E1,-4.707060814E0,-9.406155586E0,-2.793921471E0
1.434477198E1,4.325300217E0,-6.565152168E0,-4.857089043E0
1.436454182E1,6.011961937E0,-5.691719055E0,-2.505184174E0
1.438431323E1,2.238490820E0,-6.398872375E0,-2.466122627E0
1.440408307E1,-3.491162777E0,-6.807711601E0,-3.159297943E0
1.442385453E1,-4.503168583E0,-5.545181274E0,-3.499419212E0
1.444362432E1,-9.583317041E-1,-4.078280449E0,-3.370085716E0
1.446339578E1,1.125180006E0,-2.151137352E0,-4.226469040E0
1.448316562E1,4.203361273E-1,4.614696503E-1,-5.617274284E0
1.450293708E1,-1.605459452E-1,3.407531261E0,-6.741820335E0
1.452270687E1,2.698911428E-1,6.476397514E0,-7.096518993E0
1.454247833E1,5.650155544E-1,8.307311058E0,-6.346892357E0
1.456224817E1,3.207571507E-1,6.946425438E0,-6.071062565E0
1.458201958E1,4.050501585E-1,4.883139133E0,-6.892044067E0
1.460178942E1,3.654847145E-1,4.205734253E0,-6.975152969E0
1.462156088E1,6.834350824E-1,4.771698952E0,-5.744764328E0
1.464133067E1,1.259086132E0,5.358940125E0,-3.788985252E0
1.466110213E1,1.908380389E0,5.056357861E0,-9.679543972E-1
1.468087198E1,1.970435500E0,3.752015114E0,2.003527641E0
1.470064338E1,2.763240337E0,4.476938248E-1,6.052206993E0
1.472041323E1,3.746325493E0,-4.074139595E0,9.748810768E0
1.474018468E1,3.428666830E0,-8.660174370E0,1.251674747E1
1.475995448E1,-2.285812855E0,-6.835366249E0,5.672451019E0
1.477972593E1,-6.286114693E0,2.460146904E0,1.915192604E0
1.479949578E1,-6.318148613E0,1.125348282E1,1.295115948E0
1.481926718E1,-5.984755516E0,9.029912949E0,-1.476562262E0
1.483903703E1,-1.103287220E0,-5.838116646E0,-1.681118393E1
1.485880843E1,1.106400967E1,-3.797986221E1,6.715426445E0
1.487857828E1,4.538544655E0,-9.073838234E0,-1.308868027E1
1.489834974E1,1.171334076E1,1.258457088E1,-5.912559509E0
1.491811953E1,-2.657823086E0,1.150779343E1,-1.192395878E1
1.493789099E1,-7.296598911E0,-1.318950653E-1,-9.942346573E0
1.495766083E1,-8.124924660E0,-1.168116093E1,-1.523481727E0
1.497743224E1,-4.150778770E0,-1.376757336E1,2.931836843E0
1.499720208E1,-4.968898296E-1,-1.624744415E0,-1.834043860E0
1.501697354E1,2.690142632E0,7.037001133E0,-6.997591257E-1
1.503674333E1,3.704835892E0,7.165565491E0,1.252288103E0
1.505651479E1,-1.482664347E0,3.348239899E0,1.675522327E-2
1.507628468E1,-4.010040283E0,-1.136993408E0,2.722016573E-1
1.509605604E1,-2.238643885E0,-2.457590103E0,1.646863461E0
1.511582588E1,1.124566495E-1,6.814041138E-1,3.463779688E0
1.513559729E1,2.056361437E0,3.714183807E0,3.689666748E0
1.515536713E1,3.593078256E-1,5.127237797E0,3.351209879E0
1.517513859E1,-1.939229488E0,3.807374477E0,2.801342726E0
1.519490838E1,-3.205080986E0,1.034617424E0,2.331652164E0
1.521467984E1,-2.852347374E0,3.724460602E-1,2.729559660E0
1.523444968E1,-1.537756443E0,4.195203781E-1,4.798808098E0
1.525422109E1,-1.486696482E0,-2.103830338E0,6.259385109E0
1.527399093E1,-3.490071774E0,-3.006474495E0,3.010147572E0
1.529376234E1,-5.011061192E0,-2.877445221E0,2.210091591E0
1.531353218E1,-3.469257832E0,-5.734683037E0,4.763993740E0
1.533330364E1,6.916648149E-1,-4.321859360E0,5.140879631E0
1.535307354E1,2.017518044E0,-2.951287270E0,4.641905785E0
1.537284489E1,-9.958511591E-1,-4.001963615E0,3.462082624E0
1.539261474E1,-4.758649349E0,-3.881750107E0,2.948968410E0
1.541238614E1,-6.940032482E0,-4.343504906E0,7.513989210E-1
1.543215599E1,-2.075354099E0,-4.815549850E0,-3.203260422E0
1.545192744E1,5.514736652E0,-5.274981499E0,-3.003946066E0
1.547169724E1,4.610350132E0,-8.120642662E0,-2.454544544E0
1.549146869E1,2.715176344E-2,-8.790983200E0,-3.940652132E0
1.551123854E1,-2.540898085E0,-6.340086937E0,-2.125375032E0
1.553100994E1,2.129071474E0,-4.739144325E0,-1.543522954E0
1.555077979E1,4.810359955E0,-2.945247650E0,-2.382949114E0
1.557055125E1,4.112335205E0,-8.381824493E-1,-4.983067513E0
1.559032114E1,2.606526136E0,1.164911270E0,-7.395959854E0
1.561009250E1,1.644696355E0,4.440443993E0,-8.002815247E0
1.562986234E1,1.499609828E0,8.480429649E0,-7.069189548E0
1.564963375E1,1.061818004E0,9.216983795E0,-5.919396400E0
1.566940359E1,9.181618690E-1,5.713325500E0,-5.671285629E0
1.568917505E1,6.888864040E-1,3.587575912E0,-6.201853752E0
1.570894484E1,3.789675236E-2,3.908715248E0,-6.284706116E0
1.572871630E1,-9.568893909E-2,4.999089241E0,-5.664177895E0
1.574848614E1,5.226243734E-1,6.078051567E0,-4.233094215E0
1.576825755E1,1.117663860E0,5.627656460E0,-2.073373795E0
1.578802739E1,6.386868954E-1,3.174345493E0,1.697884321E0
1.580779885E1,1.973943710E0,-8.387136459E-1,8.551405907E0
1.582756864E1,4.402794361E0,-5.659519196E0,1.354278946E1
1.584734010E1,2.738942623E0,-8.419295311E0,1.509701633E1
1.586710994E1,-2.623186588E0,-4.653029442E0,7.702105045E0
1.588688135E1,-4.595548630E0,3.062956810E0,-2.338199615E0
1.590665119E1,2.870817661E0,7.201035023E0,-1.581140757E0
1.592642265E1,1.027462482E1,-3.746893883E0,-8.574426174E-1
1.594619244E1,1.259072876E1,-1.600781250E1,-9.094241142E0
1.596596390E1,-2.190201283E0,-1.146856499E1,-1.488147497E0
1.598573369E1,-4.077085495E0,4.942295074E0,-1.763890457E1
1.600550515E1,-7.797696590E-1,6.026395798E0,-3.722504616E0
1.602527500E1,-4.230100155E0,-5.745706558E-1,-1.005131817E1
1.604504640E1,-2.961389542E0,-7.679024696E0,-3.180845737E0
1.606481625E1,-1.078059077E-1,-9.892239571E0,-1.076730967E0
1.608458770E1,1.908329725E0,-3.272573471E0,-2.559767962E-1
1.610435750E1,2.508451462E0,3.078825951E0,-8.291265368E-1
1.612412895E1,1.084307671E0,5.383576393E0,-1.011034966E0
1.614389875E1,-6.241744757E-1,3.684992790E0,-6.900835037E-2
1.616367020E1,-2.705437899E0,-1.330941200E0,2.730723917E-1
1.618344005E1,-3.407621384E0,-2.813220978E0,1.170986533E0
1.620321145E1,-1.350131989E0,4.300966263E-1,2.485130548E0
1.622298130E1,1.693829775E0,3.447738647E0,3.772216558E0
1.624275270E1,2.023186922E0,4.151572704E0,4.067142487E0
1.626252255E1,-1.021451235E0,2.540414333E0,4.320402145E0
1.628229401E1,-4.836301804E0,1.298426628E0,3.862904072E0
1.630206380E1,-4.899235249E0,1.426137924E0,1.624403238E0
1.632183526E1,-2.317345619E0,4.227333069E-1,2.189410448E0
1.634160515E1,3.386810422E-1,8.485889435E-2,6.352203369E0
1.636137651E1,1.571269393E0,-1.745360374E0,7.760073185E0
1.638114635E1,2.256618500E0,-3.230776787E0,5.305818081E0
1.640091776E1,2.961277723E0,-2.354735374E0,4.888875008E0
1.642068760E1,1.659461260E0,-1.293933868E0,4.519377232E0
1.644045901E1,-2.625027299E-1,-2.286983490E0,4.328386307E0
1.646022885E1,-1.765966415E0,-4.523697853E0,3.228262901E0
1.648000026E1,-2.605845213E0,-7.767833710E0,1.854998946E0
1.649977010E1,-3.951803446E0,-6.557252884E0,1.772309661E0
1.651954156E1,-3.065401793E0,-5.214221954E0,-6.765505075E-1
1.653931135E1,-1.355401635E0,-5.802227974E0,-2.263007402E0
1.655908281E1,8.079516888E-2,-8.659221649E0,-1.520281076E0
1.657885260E1,-7.931143045E-1,-9.039241791E0,-3.427337646E0
1.659862406E1,-1.722155929E0,-7.405090332E0,-3.482966423E0
1.661839385E1,-9.032518268E-1,-6.288073540E0,-3.315662861E0
1.663816531E1,1.232278347E0,-4.674545288E0,-2.807047367E0
1.665793510E1,2.031255245E0,-1.077523232E0,-4.354333878E0
1.667770656E1,1.143153429E0,2.454382896E0,-6.094125748E0
1.669747635E1,-1.000537157E0,5.153788567E0,-6.941785812E0
1.671724781E1,-1.598581910E0,7.084852219E0,-6.639749050E0
1.673701760E1,-1.122545719E0,7.884785175E0,-6.011686802E0
1.675678901E1,-5.386056304E-1,6.076153755E0,-5.553263664E0
1.677655885E1,6.580351591E-1,4.697265625E0,-5.939687729E0
1.679633026E1,1.453386545E-1,4.682818413E0,-5.903191566E0
1.681610010E1,-2.155754566E-1,5.581329346E0,-5.183549881E0
1.683587151E1,1.530258656E-1,6.531617641E0,-3.822160721E0
1.685564135E1,8.791331053E-1,6.469374657E0,-1.775657892E0
1.687541276E1,8.642519712E-1,5.164270401E0,1.773097277E0
1.689518260E1,1.129145026E0,2.056513786E0,6.740378380E0
1.691495401E1,2.799213409E0,-2.617339134E0,1.019909763E1
1.693472385E1,2.681137323E0,-7.882295609E0,1.092470169E1
1.695449526E1,1.090179801E0,-8.450447083E0,6.576273918E0
1.697426510E1,-2.504680157E-1,-9.632444382E-1,2.989549160E0
1.699403651E1,3.449234962E0,6.420199871E0,3.699624538E0
1.701380630E1,1.106492424E1,-6.359252930E-1,2.779022694E0
1.703357776E1,6.685059547E0,-1.405928993E1,-1.447979355E1
1.705334755E1,-9.690648079E0,-9.998013496E0,-2.838951111E0
1.707311901E1,-4.476933479E0,2.927736282E0,-1.389777756E1
1.709288880E1,-1.279963255E0,5.848650455E0,-2.803779364E0
1.711266026E1,-3.737104177E0,1.432809830E-1,-7.675017357E0
1.713243005E1,-4.452295780E0,-6.731908798E0,-4.058244705E0
1.715220145E1,-4.308711529E0,-1.154618931E1,-2.401974201E0
1.717197130E1,-3.559398890E0,-6.935188293E0,-1.119409800E0
1.719174270E1,-1.217127562E0,-1.588897705E-1,-1.562150598E0
1.721151255E1,1.355958819E0,3.435936451E0,-1.229716778E0
1.723128395E1,1.361121416E0,3.761622906E0,-2.072007656E-1
1.725105375E1,-7.314227819E-1,1.484574318E0,-6.730676889E-1
1.727082520E1,-2.376610756E0,-1.405203819E0,7.853036523E-1
1.729059500E1,-2.228212833E0,-1.749134064E0,1.712687969E0
1.731036645E1,-1.026836634E0,1.266640663E0,1.820169568E0
1.733013625E1,-2.086934447E-1,3.321630955E0,3.076050043E0
1.734990770E1,2.832422256E-1,3.370534897E0,3.800480127E0
1.736967750E1,-1.873428822E-1,3.108747005E0,3.039746523E0
1.738944895E1,-1.728376150E0,1.937168121E0,3.593304634E0
1.740921875E1,-2.614472151E0,8.156967163E-1,2.632591486E0
1.742899020E1,-2.225862026E0,1.167659760E0,4.097465038E0
1.744876000E1,-1.719676375E0,1.079494476E0,4.257737637E0
1.746853145E1,-1.305901766E0,-9.772949219E-1,4.207657814E0
1.748830125E1,-7.256383896E-1,-2.478835106E0,4.861740589E0
1.750807270E1,-1.961478114E0,-1.457015991E0,3.478084087E0
1.752784250E1,-3.084009647E0,-3.354186058E0,3.209261894E0
1.754761395E1,-7.913982868E-1,-4.168688774E0,5.375695229E0
1.756738375E1,4.662504196E-1,-3.496660233E0,4.540116787E0
1.758715520E1,-2.776683331E0,-3.779623985E0,3.052203655E0
1.760692505E1,-9.164186478E0,-4.963521004E0,2.653430223E0
1.762669645E1,-1.097146225E1,-6.851308823E0,-7.575196624E-1
1.764646630E1,-1.682279587E0,-6.298884392E0,-4.099820614E0
1.766623770E1,4.882417679E0,-6.550013542E0,-2.720225573E0
1.768600755E1,1.727288365E0,-7.074222565E0,-3.036570549E0
1.770577901E1,-2.799037457E0,-7.623170853E0,-3.511252880E0
1.772554880E1,-4.044924259E0,-6.124702454E0,-3.188295364E0
1.774532026E1,-8.327677250E-1,-4.164258003E0,-2.921458960E0
1.776509010E1,1.381096601E0,-2.232515335E0,-3.540913820E0
1.778486151E1,5.162098408E-1,-4.299468994E-1,-4.679204941E0
1.780463135E1,1.187310219E-1,1.457654953E0,-6.218466759E0
1.782440281E1,2.430487871E-1,3.967776775E0,-6.547720909E0
1.784417265E1,-7.400695086E-1,6.166272640E0,-7.201471329E0
1.786394406E1,-4.727807045E-1,7.184400558E0,-7.278010368E0
1.788371390E1,-6.278318167E-1,6.539551735E0,-6.746782303E0
1.790348536E1,3.245249987E-1,4.675097942E0,-6.147931099E0
1.792325520E1,1.330873132E0,3.805112362E0,-5.191503525E0
1.794302661E1,1.606958985E0,3.926301956E0,-3.780050039E0
1.796279645E1,2.240107059E0,4.135882854E0,-1.922746897E0
1.798256791E1,2.452134848E0,3.941569805E0,2.141306400E-1
1.800233776E1,2.400732517E0,2.344391823E0,2.445510149E0
1.802210921E1,2.466017008E0,-3.543348312E-1,6.079785824E0
1.804187911E1,2.725664139E0,-3.514546394E0,9.352319717E0
1.806165052E1,-1.006723642E0,-5.882038116E0,1.120767403E1
1.808142031E1,-5.714182854E0,-2.955066681E0,6.021807671E0
1.810119177E1,-4.993589401E0,4.065787792E0,2.030346870E0
1.812096161E1,-1.557718754E0,6.305761337E0,1.281132698E0
1.814073307E1,1.121341705E0,-4.882404327E0,4.305009842E-1
1.816050291E1,1.270969748E0,-1.657295227E1,-1.026185989E1
1.818027437E1,6.289616585E0,-5.783069611E0,-1.146109200E1
1.820004421E1,1.369008350E1,7.380977631E0,-3.953883410E0
1.821981567E1,4.595522881E-1,3.666077614E0,-3.285317421E0
1.823958552E1,-9.328300476E0,-4.979056358E0,-1.519517708E1
1.825935698E1,-6.248058319E0,-9.855190277E0,-1.605380535E0
1.827912682E1,-4.014112949E0,-8.006341934E0,1.135801554E0
1.829889828E1,-3.632119298E-1,-2.187808037E0,-3.091606379E0
1.831866812E1,2.293370724E0,2.586568832E0,-3.302423716E0
1.833843958E1,4.216427326E0,3.965132236E0,1.345846653E-1
1.835820942E1,5.804902315E-1,2.743437767E0,-9.492949247E-1
1.837798088E1,-3.442470074E0,-1.311714172E0,-1.078354239E0
1.839775072E1,-3.010553598E0,-3.137013435E0,1.053923965E0
1.841752218E1,-1.286174297E0,-2.806701660E-1,1.910442948E0
1.843729203E1,4.038738608E-1,3.267670631E0,2.387007952E0
1.845706354E1,1.452940226E0,4.237375259E0,3.421047688E0
1.847683343E1,-7.543751597E-2,3.847752094E0,3.203355551E0
1.849660484E1,-2.436653852E0,2.698581219E0,2.301141262E0
1.851637468E1,-2.972677469E0,1.553129196E0,1.887765050E0
1.853614614E1,-2.118668079E0,1.407320023E0,2.293897867E0
1.855591599E1,-9.877011776E-1,1.143656731E0,3.494779587E0
1.857568750E1,-1.432388067E0,-7.694339752E-2,4.502815723E0
1.859545739E1,-2.769401312E0,-1.495519638E0,3.886891842E0
1.861522880E1,-1.569197655E0,-1.654417992E0,3.287653685E0
1.863499864E1,-1.936578870E0,-1.280812263E0,3.541305065E0
1.865477010E1,-3.195006609E0,-3.933370590E0,4.799551964E0
1.867454005E1,-1.966749668E0,-3.854606628E0,4.929898262E0
1.869431145E1,-7.398270369E-1,-3.454256058E0,4.369241238E0
1.871408130E1,-1.417981982E0,-3.687348366E0,3.362258196E0
1.873385276E1,-4.268725395E0,-3.358121872E0,2.492084026E0
1.875362270E1,-3.432271957E0,-4.723289490E0,4.870675206E-1
1.877339411E1,2.786152363E0,-4.791802406E0,-2.744846821E0
1.879316395E1,5.846327305E0,-5.577143669E0,-2.504376650E0
1.881293541E1,2.887750626E0,-7.414173126E0,-3.119462490E0
1.883270536E1,-1.124911427E0,-8.585872650E0,-3.314372778E0
1.885247677E1,-1.478992581E0,-7.971632004E0,-1.888512850E0
1.887224661E1,2.384179831E0,-5.766655922E0,-1.643958688E0
1.889201807E1,4.687552929E0,-2.924324989E0,-2.514288902E0
1.891178802E1,3.460885286E0,-9.357051849E-1,-4.513362885E0
1.893155942E1,1.799731493E0,4.861774445E-1,-6.044431686E0
1.895132927E1,1.124351501E0,3.024527073E0,-7.039560795E0
1.897110072E1,1.014419079E0,5.809072971E0,-7.036495209E0
1.899087067E1,1.020524859E0,7.356855392E0,-6.533181190E0
1.901064208E1,2.736302614E-1,6.711739540E0,-6.188082218E0
1.903041192E1,-1.843791008E-1,5.573797226E0,-6.301281929E0
1.905018343E1,-7.119169235E-1,5.447113037E0,-6.095948219E0
1.906995333E1,-7.052229643E-1,6.069212914E0,-5.204883575E0
1.908972474E1,-2.452168465E-1,6.139423847E0,-3.280281067E0
1.910949458E1,-5.017043352E-1,4.679392338E0,-6.166112423E-1
1.912926609E1,-3.826304078E-1,2.180795193E0,4.092659950E0
1.914903593E1,8.288161159E-1,-2.006561279E0,1.109380341E1
1.916880739E1,3.191976547E0,-7.513032913E0,1.334252739E1
1.918857734E1,3.310712337E0,-9.131395340E0,9.594829559E0
1.920834875E1,1.025324345E0,-4.097867012E0,7.974562645E-1
1.922811859E1,1.400672913E0,4.632781982E0,-2.010942459E0
1.924789005E1,1.410791159E0,1.003952026E1,2.387205601E0
1.926766000E1,1.422665119E-1,8.005101204E0,3.906799316E0
1.928743140E1,4.930839539E0,-4.989709854E-1,-8.168893814E0
1.930720125E1,-1.426570296E0,-1.309030437E1,-9.020948410E-2
1.932697270E1,-3.217890501E0,-2.429199219E1,-3.120418072E0
1.934674265E1,1.840762615E0,2.749157906E0,-1.476143837E1
1.936651406E1,1.014634132E1,1.207830906E1,5.429315090E0
1.938628390E1,-4.273362637E0,4.154581070E0,-1.276731491E1
1.940605541E1,-5.308906078E0,-6.987013817E0,-7.679719925E0
1.942582531E1,-3.154558182E0,-1.067157841E1,3.221621513E-1
1.944559671E1,-1.840304613E0,-5.411955833E0,-7.131633759E-1
1.946536656E1,4.126370549E-1,1.448466301E0,-2.562305212E0
1.948513807E1,2.176809311E0,4.226295471E0,-1.181417584E0
1.950490791E1,1.353885889E0,4.032695770E0,7.350469828E-1
1.952467937E1,-2.855372190E0,1.769808769E0,-1.064663410E0
1.954444932E1,-2.337692022E0,-6.309614182E-1,-8.426794410E-2
1.956422073E1,-5.093514919E-1,1.093413353E0,4.293628931E-1
1.958399057E1,1.422141194E0,2.247027874E0,2.496791840E0
1.960376203E1,8.781081438E-1,1.835316658E0,1.944386959E0
1.962353198E1,-4.225036502E-2,1.424615860E0,2.604911566E0
1.964330338E1,-1.343348503E0,2.298415661E0,1.835937142E0
1.966307322E1,-1.306864619E0,2.984176159E0,4.234614372E-1
1.968284468E1,-6.750975251E-1,2.157011986E0,2.242559910E0
1.970261458E1,-1.977969646E0,6.883764267E-1,4.227514744E0
1.972238604E1,-2.093553066E0,-1.061528206E0,3.170071125E0
1.974215588E1,-1.692506671E0,-2.444840431E0,2.956019640E0
1.976192739E1,-5.506382585E-1,-1.887247086E0,4.309143066E0
1.978169724E1,-2.240620136E0,-1.352441788E0,2.988840103E0
1.980146869E1,-3.406853676E0,-3.700734138E0,2.753572702E0
1.982123864E1,-1.548400521E0,-4.566724777E0,4.517733097E0
1.984101005E1,8.013420105E-1,-3.406603813E0,4.924379349E0
1.986077989E1,1.039804220E-1,-4.665105820E0,3.777376652E0
1.988055135E1,-1.898252249E0,-5.947563171E0,2.756503820E0
1.990032130E1,-1.577528596E0,-4.937382698E0,2.479404449E0
1.992009270E1,-1.811905146E0,-3.514948845E0,9.934693575E-1
1.993986255E1,1.609959841E0,-2.475810051E0,-1.132849574E0
1.995963401E1,3.650549412E0,-1.120272636E0,-2.258319855E0
1.997940395E1,2.901252747E0,-3.700284004E0,-2.040395260E0
1.999917536E1,1.718173385E0,-6.444450378E0,-2.152824879E0
2.001894520E1,-7.578420043E-1,-6.655582428E0,-2.438243628E0
2.003871671E1,-4.692931473E-1,-5.487843513E0,-2.618334770E0
2.005848661E1,1.743921638E0,-4.303124428E0,-2.308875561E0
2.007825802E1,2.741283417E0,-2.436389923E0,-3.721449375E0
2.009802796E1,1.630047321E0,-1.335248947E-1,-4.798349380E0
2.011779937E1,6.577774286E-1,2.449801445E0,-5.211643696E0
2.013756921E1,8.516543508E-1,5.410388947E0,-5.970091343E0
2.015734067E1,1.211684465E0,6.969374657E0,-5.510819912E0
2.017711062E1,1.195489883E0,6.089887619E0,-5.489238739E0
2.019688203E1,9.726566076E-1,4.840669632E0,-6.262161732E0
2.021665187E1,8.866107464E-2,4.594099998E0,-6.949862480E0
2.023642338E1,-7.225819826E-1,4.810007095E0,-6.492724419E0
2.025619328E1,-3.427814245E-1,4.863987923E0,-4.989536285E0
2.027596468E1,2.666850090E-1,5.250982285E0,-2.734780788E0
2.029573453E1,4.541218281E-1,5.064413548E0,1.237201691E-2
2.031550598E1,-4.016811848E-1,2.886560440E0,4.755261421E0
2.033527593E1,-6.287862659E-1,-1.037227631E0,1.161728001E1
2.035504734E1,-4.721244872E-1,-6.629599571E0,1.637628746E1
2.037481718E1,1.095083952E-1,-1.037220192E1,1.278330898E1
2.039458864E1,-3.774521053E-1,-6.951532364E0,1.565555096E0
2.041435859E1,1.597118378E0,1.206617355E0,-3.186569214E-1
2.043413000E1,4.025615692E0,6.680361271E0,2.922076225E0
2.045389984E1,6.177414894E0,2.906132221E0,-8.240001678E0
2.047367130E1,8.277813911E0,-2.160811424E0,-7.147479534E0
2.049344125E1,-3.996424675E0,-1.219719696E1,3.185089588E0
2.051321265E1,-9.205605507E0,-4.000429153E0,-1.741793060E1
2.053298250E1,-9.928488731E-2,1.896639347E0,-1.041772604E0
2.055275395E1,-3.436836481E0,-7.345848083E-1,-7.767895699E0
2.057252380E1,1.893831491E-1,-3.692725182E0,-2.608494282E0
2.059229526E1,2.200582981E0,-2.588445663E0,-2.388937473E0
2.061206520E1,2.052510977E0,-1.472432137E0,-3.343978882E0
2.063183661E1,1.095002770E0,-2.343454361E-1,-2.384493351E0
2.065160645E1,-3.760589361E-1,3.506584167E-1,-1.958741784E0
2.067137791E1,-2.315347195E0,6.308126450E-1,-1.053016424E0
2.069114776E1,-2.488656282E0,1.203707695E0,-6.037127972E-1
2.071091927E1,-6.748696566E-1,-1.809120178E-2,5.402008891E-1
2.073068916E1,1.254310310E-1,3.018069267E0,1.791304231E0
2.075046057E1,1.201733112E0,3.085482597E0,2.044758081E0
2.077023041E1,-4.929079115E-1,1.751974106E0,2.479396582E0
2.079000187E1,-1.786694527E0,1.455347061E0,3.321850300E0
2.080977171E1,-1.419123411E0,2.285628796E0,3.522812605E0
2.082954317E1,-6.668615341E-1,9.328727722E-1,2.432751894E0
2.084931312E1,-1.041176200E0,-2.460117340E-1,2.675009489E0
2.086908453E1,-1.257245898E0,7.764348984E-1,3.033816338E0
2.088885437E1,-1.534725070E0,1.070105553E0,2.492730618E0
2.090862583E1,-3.690505743E0,-3.358316422E-1,9.511179924E-1
2.092839567E1,-2.451839447E0,-1.432579041E0,2.941226959E-1
2.094816713E1,4.828340411E-1,-1.450394630E0,1.176515222E0
2.096793708E1,1.246029615E0,-2.471085548E0,2.091223001E0
2.098770849E1,1.743169308E0,-2.696618080E0,3.319474697E0
2.100747833E1,2.598712921E0,-1.978211403E0,5.013667107E0
2.102724979E1,8.425474763E-1,-2.380827904E0,4.732210159E0
2.104701963E1,-3.009140491E0,-4.477293015E0,4.396008015E0
2.106679109E1,-4.350955963E0,-4.892100334E0,4.222168922E0
2.108656093E1,-4.409343243E0,-4.139035225E0,3.143317938E0
2.110633239E1,-3.607025623E0,-3.377264023E0,2.611163557E-1
2.112610234E1,3.107978702E-1,-2.438500404E0,-2.614016533E0
2.114587375E1,4.227139473E0,-2.724180222E0,-2.242576361E0
2.116564359E1,2.612096786E0,-3.545056343E0,-1.315047860E0
2.118541505E1,1.216551185E0,-6.514928818E0,-1.953018546E0
2.120518489E1,-3.097996235E0,-6.583193779E0,-2.350691080E0
2.122495635E1,-4.104917526E0,-5.063673973E0,-2.721356153E0
2.124472619E1,3.161199093E-1,-3.449501038E0,-2.790736675E0
2.126449770E1,1.972751856E0,-1.273212433E0,-3.243193626E0
2.128426760E1,1.026949883E0,1.748494625E0,-3.919402838E0
2.130403901E1,1.174425483E0,3.632725716E0,-4.243965149E0
2.132380885E1,7.132017612E-2,4.448648453E0,-4.567118645E0
2.134358031E1,-9.397717714E-1,3.909195900E0,-4.877646923E0
2.136335015E1,5.164825916E-2,2.918097496E0,-5.510727882E0
2.138312161E1,4.251433611E-1,3.113171577E0,-6.405806541E0
2.140289145E1,7.822719812E-1,3.644518375E0,-6.588644981E0
2.142266291E1,9.760557413E-1,4.373131275E0,-6.022238255E0
2.144243276E1,1.307142615E0,4.864892960E0,-4.960893154E0
2.146220421E1,1.496839762E0,5.925104618E0,-3.208890915E0
2.148197416E1,1.316763043E0,4.744190216E0,-7.085061073E-1
2.150174557E1,1.072313786E-1,1.584073544E0,2.721244812E0
2.152151541E1,-1.351948023E0,-1.353496552E0,6.884743690E0
2.154128687E1,-5.363335609E-1,-3.876814842E0,1.129826832E1
2.156105671E1,6.070118546E-1,-5.466753006E0,1.209906769E1
2.158082817E1,-6.159013510E-2,-3.413702965E0,6.442429543E0
2.160059802E1,-6.375225782E-1,-1.279649734E-1,4.687261581E-2
2.162036948E1,1.796334386E0,2.572740078E0,1.288272858E0
2.164013932E1,4.308955193E0,-3.070135117E-1,1.708619595E0
2.165991078E1,6.008782387E0,-2.823975563E0,-7.275381088E0
2.167968062E1,2.720352411E0,-3.352618217E0,-1.865786552E0
2.169945208E1,-5.074230671E0,-8.907011986E0,2.142580986E0
2.171922192E1,-5.276136398E0,-6.206932068E-1,-1.370118713E1
2.173899338E1,1.930014014E0,3.393804550E0,-2.283868790E0
2.175876323E1,-2.019126415E0,1.464227200E0,-7.109798431E0
2.177853468E1,-2.101997137E-1,-3.275526047E0,-2.842601061E0
2.179830453E1,8.836781979E-2,-4.744374275E0,-2.782529831E0
2.181807598E1,1.008834958E0,-1.695947647E0,-2.523849249E0
2.183784583E1,1.576619387E0,-1.032228470E-1,-1.916917443E0
2.185761729E1,-2.535183430E-1,1.077801704E0,-2.424801588E0
2.187738713E1,-2.299221754E0,1.588764191E0,-2.388107777E0
2.189715859E1,-3.361645937E0,9.200925827E-1,-1.414238214E-1
2.191692843E1,-2.733597040E0,1.339367867E0,3.367208242E-1
2.193669989E1,-1.124134779E0,2.348842621E0,9.737575650E-1
2.195646974E1,-6.104586124E-1,7.024087906E-1,1.863922834E0
2.197624119E1,-4.619681835E-1,1.033653259E0,2.158593178E0
2.199601104E1,-2.130109221E-1,1.053019524E0,2.147706032E0
2.201578250E1,-6.079270840E-1,8.551120758E-2,1.973689795E0
2.203555234E1,-4.826781154E-1,-1.615295410E-1,1.660884976E0
2.205532380E1,3.806292713E-1,1.403270721E0,2.578546524E0
2.207509364E1,-3.660146892E-1,1.247716904E0,2.741250038E0
2.209486510E1,-2.183412790E0,1.872031212E0,2.692211628E0
2.211463494E1,-3.315849304E0,-4.330329895E-1,1.674925566E0
2.213440640E1,6.552644968E-1,-2.321498871E0,7.930578589E-1
2.215417625E1,5.215820074E-1,4.057970047E-1,1.575693846E0
2.217394770E1,1.730285585E-1,-2.870283127E-1,2.254736423E0
2.219371755E1,-4.539684653E-1,-8.800992966E-1,1.605094910E0
2.221348901E1,-8.528873920E-1,-1.920255661E0,1.479789019E0
2.223325885E1,-5.597865582E-2,-1.928465843E0,3.682429314E0
2.225303031E1,-2.399342299E0,-1.841003418E0,2.949822426E0
2.227280015E1,1.242133975E-1,-4.816505432E0,4.341849804E0
2.229257161E1,-4.831096172E0,-4.275424957E0,2.924595833E0
2.231234145E1,-3.710268497E0,-4.987174034E0,3.715043545E0
2.233211291E1,-2.181533337E0,-3.602466583E0,1.873569846E0
2.235188276E1,7.143552303E-1,-1.701619148E0,-1.344408631E0
2.237165421E1,3.597151756E0,-4.615831375E-1,-2.568455935E0
2.239142406E1,4.858261585E0,-4.650993347E-1,-1.674870729E0
2.241119552E1,3.221943140E0,-4.420890808E0,-1.587270021E0
2.243096536E1,-7.971088290E-1,-6.317699432E0,-2.949793339E0
2.245073682E1,-3.769612551E0,-4.584264755E0,-2.931230545E0
2.247050666E1,-1.798804402E0,1.004664421E0,-1.546475172E0
2.249027812E1,-2.841084719E0,-3.075900078E0,-4.710311890E-1
2.251004802E1,-1.847648144E0,-1.541374207E0,-1.013022900E0
2.252981937E1,5.928266048E-2,8.847904205E-1,-2.896518230E0
2.254958932E1,6.990622282E-1,2.217924118E0,-3.594427109E0
2.256936067E1,4.644837379E-1,2.006032944E0,-3.822241068E0
2.258913052E1,-7.861804962E-2,-3.667001724E-1,-5.196464539E0
2.260890198E1,1.694921374E0,1.096820831E-2,-4.993584633E0
2.262867182E1,-2.275896072E-1,3.413670540E0,-7.514640331E0
2.264844328E1,-6.030149460E-1,4.549475193E0,-6.011089325E0
2.266821312E1,-4.351649284E-1,1.912829876E0,-2.719302416E0
2.268798458E1,7.342849970E-1,1.559081078E0,-2.790261745E0
2.270775442E1,2.616036415E0,1.498465538E0,-2.041337967E0
2.272752583E1,2.434926987E0,2.691669464E0,-5.724787712E-1
2.274729578E1,1.224900723E0,2.516489983E0,8.104352951E-1
2.276706713E1,7.567024231E-2,1.450837612E0,1.122293949E0
2.278683698E1,-3.650348186E-1,1.624785423E0,1.435318947E0
2.280660843E1,-7.998328209E-1,7.312459946E-1,2.270827532E0
2.282637828E1,-1.949306369E0,-6.093034744E-1,3.678206205E0
2.284614974E1,-1.744855881E0,-7.953805923E-1,3.771148920E0
2.286591953E1,-6.373726726E-1,-2.375969887E0,5.103108406E0
2.288569098E1,1.231036305E0,-8.593091965E-1,4.075943470E0
2.290546083E1,2.106522799E0,2.795581818E-1,2.778993607E0
2.292523229E1,1.545189738E0,-5.216407776E-2,1.240776539E0
2.294500213E1,-5.167202950E-1,-2.213044167E0,-8.698253632E-1
2.296477359E1,1.540374517E0,-4.283535957E0,-1.174900532E0
2.298454348E1,2.996445656E0,-7.955837250E-2,-4.077384472E-1
2.300431484E1,2.710319519E0,-2.235623360E0,2.480899811E0
2.302408468E1,1.535802722E0,-2.840855598E0,2.397083282E0
2.304385614E1,1.258403540E0,-5.737428665E-1,-6.135414124E0
2.306362598E1,1.812427521E0,-9.901037216E-1,-4.846652508E0
2.308339744E1,1.970652342E-1,3.583917618E-1,-3.485367060E0
2.310316724E1,-7.547296286E-1,1.082220078E-1,-5.697509766E0
2.312293869E1,-7.986395359E-1,-7.363290787E-1,-5.103654861E0
2.314270854E1,-1.332514763E0,2.470938206E0,-8.631293774E-1
2.316248000E1,-8.817554712E-1,5.969314575E-1,-8.272831440E-1
2.318224979E1,6.191266775E-1,-5.406093597E-1,-1.866195083E0
2.320202125E1,3.912514448E-1,-8.197193146E-1,-8.348450661E-1
2.322179109E1,-7.531120777E-1,-1.346007347E0,1.496398449E-2
2.324156255E1,-6.887257099E-1,-1.490760803E0,1.308090448E0
2.326133234E1,-1.593468666E0,-7.622051239E-2,1.969630718E-1
2.328110380E1,1.679563522E-1,-5.287292480E0,8.764302731E-1
2.330087364E1,-2.967024088E0,-7.613205910E0,1.837887645E0
2.332064505E1,-3.989320278E0,-1.380941391E0,4.647817612E-1
2.334041489E1,-4.283211708E0,3.140630722E-1,1.606078863E0
2.336018635E1,-4.776855469E0,1.548966408E0,2.811945677E0
2.337995619E1,-5.803341866E-1,-9.759340286E-1,3.663806200E0
2.339972760E1,7.695231438E0,-5.757666588E0,-3.687978983E-1
2.341949744E1,4.465826035E0,-3.810464859E0,1.672087431E0
2.343926890E1,5.045876980E0,-6.445690155E0,8.686795235E-1
2.345903869E1,1.900357246E0,-1.345761299E0,2.855123997E0
2.347881015E1,-2.204261303E0,2.609740257E0,5.376581669E0
2.349858000E1,-5.605270863E0,4.728422165E0,-1.236242771E0
2.351835140E1,-5.122415543E0,5.316066265E0,-5.286236405E-1
2.353812125E1,-1.337737083E0,2.567168236E0,5.764837742E0
2.355789270E1,2.212816238E0,5.615944862E-1,4.360509396E0
2.357766255E1,-9.550218582E-1,1.048757076E0,5.339141369E0
2.359743395E1,-1.746711731E0,-6.448793411E-2,5.976794720E0
2.361720380E1,-8.033304214E-1,-9.079246521E-1,4.900246620E0
2.363697520E1,-4.168212414E0,1.558867455E0,4.455670834E0
2.365674505E1,-4.657096863E0,2.509642601E0,6.000948429E0
2.367651651E1,-1.238124371E0,4.074134827E-1,5.659512997E0
2.369628630E1,-1.428515911E0,9.628195763E-1,3.192214727E0
2.371605776E1,-3.643857002E0,2.198468208E0,1.710540771E0
2.373582760E1,-2.820020676E0,1.355471134E0,-6.239972115E-1
2.375559901E1,-1.072326183E0,5.293416977E-2,-1.734183788E0
2.377536885E1,-2.788425922E0,1.146537304E0,-2.575275898E0
2.379514026E1,-3.803251743E0,1.380290985E0,-3.185387850E0
2.381491010E1,-2.091892242E0,-1.364863396E0,-3.427186489E0
2.383468151E1,-8.753600121E-1,-2.054235458E0,-4.845820904E0
2.385445135E1,-1.469392776E0,-5.271079540E-1,-5.168510437E0
2.387422281E1,-2.876663208E-1,-1.937230349E0,-3.128842831E0
2.389399260E1,1.204302073E0,-4.083489895E0,-3.322653770E0
2.391376406E1,1.593457699E0,-5.092366219E0,-2.437287807E0
2.393353390E1,-1.184347153E0,-5.365831852E0,6.859627724E0
2.395330531E1,-3.224350691E0,-3.940843105E0,-4.144721031E0
2.397307515E1,-8.564901352E-1,-5.198601723E0,-2.884742737E0
2.399284656E1,-2.510605574E0,-6.229626656E0,-1.404864311E0
2.401261640E1,-3.077810764E0,-6.006216526E0,-3.002185822E-1
2.403238781E1,4.358756065E0,-4.450191498E0,-1.988214970E0
2.405215765E1,2.473191738E0,-3.339307308E0,-2.445811272E0
2.407192906E1,1.222692966E0,-4.076634884E0,3.056631088E-1
2.409169890E1,1.244021654E0,-1.556291819E0,1.269913673E0
2.411147036E1,-5.212339163E-1,-2.473859310E0,-1.705949783E0
2.413124015E1,-8.145111203E-1,-2.552495956E0,-1.359098911E0
2.415101161E1,-8.895995617E-1,-1.566920519E0,1.376680374E0
2.417078140E1,3.580646515E-1,-1.794519424E0,3.044118881E-1
2.419055286E1,1.463877797E0,-1.247478008E0,-9.124889374E-1
2.421032265E1,1.827808857E0,-1.472653389E0,-7.958698273E-2
2.423009411E1,3.188311100E0,-2.177658081E0,-2.258777618E-2
2.424986390E1,2.207884550E0,-1.580242634E0,3.830432892E-1
2.426963536E1,3.684274554E-1,-8.677840233E-1,-3.771882057E-1
2.428940515E1,2.907556295E-1,-2.747850418E-1,-1.973705292E-1
2.430917661E1,-6.202713251E-1,9.318490028E-1,-2.157278061E-1
2.432894640E1,-7.765020132E-1,3.126482487E0,-2.147202969E0
2.434871786E1,-2.564446211E0,4.089253902E0,-3.655182600E0
2.436848765E1,-9.056050181E-1,1.718188286E0,-1.011309147E0
2.438825911E1,1.594899416E0,-9.635267258E-1,4.843664169E-1
2.440802890E1,3.176081419E0,-2.485146523E0,2.029448986E0
2.442780036E1,7.338083386E-1,-1.690480232E0,1.606202602E0
2.444757015E1,-1.868690610E0,-3.172874451E-1,-1.383838177E0
2.446734161E1,-1.766799569E0,4.926767349E-1,-2.391687870E0
2.448711140E1,-2.872355878E-1,-1.825504303E-1,-1.916811466E0
2.450688286E1,3.974577785E-1,-8.335800171E-1,-1.626729250E0
2.452665265E1,4.336493909E-1,-5.544996262E-1,-2.682375908E-1
2.454642411E1,1.755301595E0,-8.363804817E-1,5.330369473E0
2.456619390E1,-9.453707933E-1,-4.942064285E-1,3.093113422E0
2.458596531E1,-6.477917433E-1,-7.290086746E-1,-4.006352425E-1
2.460573515E1,5.108748674E-1,-1.259421349E0,-1.181316376E0
2.462550656E1,6.440694332E-1,-1.148420334E0,-1.798366308E0
2.464527640E1,5.995736122E-1,-1.072804451E0,-1.912054539E0
2.466504781E1,3.567213714E-1,-1.346066475E0,-1.500723362E0
2.468481765E1,-1.837046742E-1,-1.491553307E0,-4.392380714E-1
2.470458906E1,-4.433923662E-1,-1.737045288E0,7.609076500E-1
2.472435890E1,-1.134349406E-1,-1.732543468E0,1.298051357E0
2.474413031E1,1.382423282E0,-1.796074867E0,9.048771858E-1
2.476390015E1,2.177770615E0,-1.482160091E0,-1.997429848E0
2.478367156E1,1.362671971E0,-1.002128601E0,-3.827335835E0
2.480344135E1,1.444265842E0,-9.864120483E-1,-2.392575502E0
2.482321281E1,6.508698463E-1,-5.247850418E-1,3.654270172E-1
2.484298260E1,-2.351713777E-1,-1.291131973E-1,4.038367271E-1
2.486275406E1,-2.715973854E-1,-7.963180542E-4,-9.675803185E-1
2.488252385E1,3.026352525E-1,1.850662231E-1,-1.869991302E0
2.490229526E1,8.293081522E-1,7.612514496E-2,-1.571748734E0
2.492206510E1,3.020024300E-1,-1.057367325E-1,-4.959263802E-1
2.494183651E1,-3.272293508E-1,3.996582031E-1,-3.333368301E-1
2.496160635E1,2.913296223E-2,9.678173065E-1,-6.150965691E-1
2.498137776E1,-5.506780744E-2,8.671255112E-1,-9.744086266E-1
2.500114760E1,-3.598748147E-1,9.917955399E-1,-6.767616272E-1
2.502091901E1,-4.463954568E-1,1.088893890E0,-4.114503860E-1
2.504068880E1,-5.632356405E-1,1.040225983E0,4.366064072E-1
2.506046026E1,2.375744581E-1,1.056393623E0,1.784984589E0
2.508023005E1,7.010000944E-1,8.502902985E-1,1.187268734E0
2.510000145E1,2.572247088E-1,8.366832733E-1,3.380060196E-1
2.511977130E1,4.471412301E-1,1.094141006E0,-2.285060883E-1
2.513954270E1,1.045304894E0,9.364166260E-1,-9.476408958E-1
2.515931250E1,1.512319446E0,4.851045609E-1,-8.033647537E-1
2.517908395E1,1.194098234E0,-2.680702209E-1,2.190823555E-1
2.519885375E1,5.731354356E-1,-6.035351753E-1,1.719821453E0
2.521862515E1,3.093518615E-1,-4.179382324E-1,2.426601410E0
2.523839500E1,-7.623872161E-2,-4.604978561E-1,1.827842712E0
2.525816640E1,-3.710356355E-2,-4.039602280E-1,1.381102085E0
2.527793619E1,-1.290846616E-1,-5.058259964E-1,6.691107750E-1
2.529770765E1,-2.290631533E-1,-5.162448883E-1,-1.178393364E-1
2.531747744E1,4.821960032E-1,-3.130931854E-1,4.514217377E-3
2.533724885E1,2.775731683E-2,-4.804706573E-1,-3.772926331E-2
2.535701869E1,-1.255479455E-2,-8.772754669E-1,-1.410567760E0
2.537679010E1,3.016405106E-1,-7.986421585E-1,-1.243841171E0
2.539655989E1,-1.919994503E-1,-7.380776405E-1,3.493976593E-2
2.541633130E1,-5.269646049E-1,-7.728404999E-1,2.961401939E-1
