"Time (s)","Linear Acceleration x (m/s^2)","Linear Acceleration y (m/s^2)","Linear Acceleration z (m/s^2)"
1.215731000E-2,2.726599932E0,-4.878999889E-1,7.206999660E-1
3.200418500E-2,2.677299976E0,-2.224999964E-1,4.561999738E-1
5.185731000E-2,1.989299893E0,-7.639999688E-2,-1.409199953E0
7.171043500E-2,8.402999640E-1,-1.768999994E-1,-2.183899879E0
9.156199700E-2,1.855999976E-1,-8.039999753E-2,-2.058699846E0
1.114151220E-1,1.604000032E-1,-1.517999917E-1,-4.836999774E-1
1.312729350E-1,1.256999969E-1,1.097999960E-1,1.750899911E0
1.511213720E-1,7.369999886E-1,1.101499915E0,1.529799938E0
1.709729350E-1,6.678000093E-1,1.787799954E0,-1.389299989E0
1.908260600E-1,4.241999984E-1,1.550300002E0,-8.632999659E-1
2.106791850E-1,2.199999988E-2,1.014500022E0,1.647599936E0
2.305307470E-1,-1.614999920E-1,4.161999822E-1,3.223799944E0
2.503838720E-1,6.988999844E-1,8.652999997E-1,2.899699926E0
2.702369970E-1,7.719999552E-1,1.538299918E0,1.426499963E0
2.900885600E-1,6.111999750E-1,1.689799905E0,2.903999984E-1
3.099416850E-1,1.569999903E-1,1.209499955E0,-1.266999990E-1
3.297948100E-1,-5.791000128E-1,5.860999823E-1,6.583999991E-1
3.496479350E-1,-6.391999722E-1,4.879999906E-2,6.857999563E-1
3.694994970E-1,-2.053999901E-1,4.329999909E-2,-9.160000086E-2
3.893526220E-1,-5.636999607E-1,-1.163999960E-1,-1.059999943E0
4.092057470E-1,-1.038499951E0,-9.229999781E-1,-1.311100006E0
4.290573100E-1,-1.859599948E0,-1.672299981E0,-1.469999999E-1
4.489104350E-1,-1.477499962E0,-1.899699926E0,3.740999997E-1
4.687619970E-1,5.386999846E-1,-9.411999583E-1,-8.618999720E-1
4.886151220E-1,1.054499984E0,-1.688999981E-1,-1.342599988E0
5.084666850E-1,1.887999922E-1,8.760000020E-2,-9.056999683E-1
5.283213720E-1,-1.250199914E0,5.801999569E-1,5.781999826E-1
5.481729350E-1,-1.740599990E0,1.088999987E0,1.992199898E0
5.680244970E-1,-4.448999763E-1,1.787699938E0,1.493399978E0
5.878776220E-1,3.199999928E-1,2.273000002E0,3.287999928E-1
6.077307470E-1,-1.744000018E-1,2.138799906E0,2.730000019E-2
6.275901220E-1,-3.438999951E-1,2.419600010E0,1.227100015E0
6.474354350E-1,4.989999831E-1,2.574599981E0,1.101999998E0
6.672885600E-1,1.462999940E0,2.412099838E0,8.610000014E-1
6.871416850E-1,2.138799906E0,1.806100011E0,5.105999708E-1
7.069948100E-1,1.594399929E0,1.082700014E0,-1.798999906E-1
7.268463720E-1,7.610999942E-1,2.771999836E-1,-9.914000034E-1
7.467010600E-1,3.215999901E-1,-4.403999746E-1,-1.525099993E0
7.665510600E-1,1.789999940E-2,-1.281399965E0,-1.375000000E0
7.864041850E-1,-4.649999738E-2,-1.788599968E0,-6.378999949E-1
8.062588720E-1,-3.425000012E-1,-2.307699919E0,3.486000001E-1
8.261104350E-1,-9.788999557E-1,-2.302799940E0,7.371999621E-1
8.459635600E-1,-9.110999703E-1,-1.786399961E0,4.079999924E-1
8.658151220E-1,-6.347999573E-1,-1.183499932E0,-4.669999704E-2
8.856682470E-1,-3.490999937E-1,-8.978999853E-1,-6.577999592E-1
9.055213720E-1,-1.908999979E-1,-9.627999663E-1,-9.813999534E-1
9.253729350E-1,-8.622999787E-1,-1.159999967E0,-9.536999464E-1
9.452260600E-1,-1.398100019E0,-1.252699971E0,-2.049999870E-2
9.650791850E-1,-1.172999978E0,-7.706999779E-1,7.312999964E-1
9.849323100E-1,-8.939999938E-1,-1.564999968E-1,8.107999563E-1
1.004783872E0,1.915999949E-1,5.042999983E-1,-4.769999906E-2
1.024636997E0,5.993999839E-1,3.874000013E-1,-1.104699969E0
1.044488560E0,-1.297999918E-1,5.381000042E-1,9.885999560E-1
1.064341685E0,-6.065999866E-1,5.034999847E-1,3.806199789E0
1.084194810E0,2.575999796E-1,7.238000035E-1,5.394499779E0
1.104047935E0,1.323599935E0,1.683599949E0,4.106899738E0
1.123905747E0,2.004699945E0,2.587699890E0,1.880399942E0
1.143752622E0,2.117199898E0,2.847499847E0,-1.248999983E-1
1.163605747E0,1.329699993E0,1.835699916E0,-6.904999614E-1
1.183458872E0,-3.813999891E-1,-8.359999955E-2,-5.893999934E-1
1.203310435E0,-1.261199951E0,-9.845999479E-1,-5.457999706E-1
1.223163560E0,-1.572600007E0,-1.375800014E0,-9.370999932E-1
1.243015122E0,-1.231199980E0,-1.761999965E0,-1.506500006E0
1.262868247E0,-2.962000072E-1,-1.952399969E0,-2.008699894E0
1.282721372E0,5.537999868E-1,-2.112299919E0,-2.285699844E0
1.302574497E0,8.127999902E-1,-2.206699848E0,-2.330600023E0
1.322426060E0,5.108999610E-1,-1.979599953E0,-1.924799919E0
1.342279185E0,1.589999907E-2,-1.525099993E0,-5.284999609E-1
1.362132310E0,-4.657000005E-1,-1.203299999E0,1.513199925E0
1.381983872E0,-4.289000034E-1,-1.044099927E0,1.721099973E0
1.401836997E0,-2.189999968E-1,-8.353999853E-1,-9.429999590E-1
1.421690122E0,1.070999950E-1,-2.116999924E-1,-3.905200005E0
1.441543247E0,-6.599999964E-2,9.188999534E-1,-2.086699963E0
1.461394810E0,-6.829999685E-1,1.408699989E0,2.209599972E0
1.481247935E0,-7.102999687E-1,1.426399946E0,4.018199921E0
1.501101060E0,-1.916999966E-1,1.724399924E0,3.461999893E0
1.520952622E0,1.714800000E0,2.475600004E0,2.371899843E0
1.540805747E0,4.242799759E0,3.129099846E0,1.912699938E0
1.560657310E0,3.587099791E0,2.742300034E0,1.792599916E0
1.580510435E0,1.089499950E0,1.609699965E0,1.885599971E0
1.600363560E0,-9.839999676E-1,9.860000014E-1,2.460999966E0
1.620222935E0,-1.333599925E0,6.601999998E-1,2.409600019E0
1.640068247E0,-4.018999934E-1,4.494999945E-1,2.795099974E0
1.659921372E0,6.488999724E-1,3.395999968E-1,3.277999878E0
1.679774497E0,1.099699974E0,-1.782999933E-1,1.479900002E0
1.699627622E0,6.802999973E-1,-3.822000027E-1,-1.366699934E0
1.719479185E0,2.069999874E-1,-9.384999871E-1,-3.332999945E0
1.739330747E0,-3.093999922E-1,-1.507900000E0,-3.473299980E0
1.759185435E0,-5.171999931E-1,-1.775900006E0,-2.276000023E0
1.779036997E0,-4.800999761E-1,-1.640299916E0,-3.755999804E-1
1.798890122E0,1.335999966E-1,-1.340799928E0,-6.568999887E-1
1.818743247E0,5.269999802E-2,6.155999899E-1,-1.529999916E-2
1.838594810E0,1.236299992E0,2.023799896E0,3.610999882E-1
1.858447935E0,2.421700001E0,2.307100058E0,-4.628999829E-1
1.878301060E0,1.580699921E0,1.315999985E0,-1.575500011E0
1.898154185E0,-1.521899939E0,3.044999838E-1,-6.064999700E-1
1.918010435E0,-2.968400002E0,8.148999810E-1,2.953199863E0
1.937858872E0,-1.573799968E0,2.210399866E0,7.150099754E0
1.957711997E0,2.013599873E0,2.449899912E0,7.469799995E0
1.977563560E0,4.308300018E0,3.366999865E0,4.399600029E0
1.997416685E0,4.015500069E0,3.779299974E0,1.038299918E0
2.017269810E0,2.334300041E0,2.945299864E0,-4.600999951E-1
2.037122935E0,4.114999771E-1,1.454199910E0,-3.306999803E-1
2.056974497E0,-7.506999969E-1,-2.377999872E-1,2.498999983E-1
2.076827622E0,-1.492200017E0,-1.570099950E0,-6.671000123E-1
2.096679185E0,-1.593599916E0,-2.221899986E0,-2.681999922E0
2.116536997E0,-1.583199978E0,-2.667500019E0,-3.981299877E0
2.136385435E0,-1.313899994E0,-3.055999994E0,-3.653399944E0
2.156236997E0,-1.419499993E0,-3.762199879E0,-2.520499945E0
2.176090122E0,-2.168599844E0,-4.386399746E0,-1.649500012E0
2.195943247E0,-2.639499903E0,-3.962399960E0,-1.496299982E0
2.215796372E0,-2.382299900E0,-2.778199911E0,-1.881899953E0
2.235647935E0,-2.547600031E0,-1.976799965E0,-2.228199959E0
2.255499497E0,-2.883599997E0,-1.380399942E0,-1.896099925E0
2.275352622E0,-2.513599873E0,-6.103999615E-1,-2.175999880E-1
2.295205747E0,-1.133499980E0,-3.021000028E-1,2.331300020E0
2.315058872E0,2.502999902E-1,-5.759999901E-2,3.628000021E0
2.334911997E0,6.243999600E-1,7.605999708E-1,3.733899832E0
2.354763560E0,1.507499933E0,1.245399952E0,3.364899874E0
2.374616685E0,2.576999903E0,8.204999566E-1,1.735799909E0
2.394468247E0,3.507999897E0,-6.714999676E-1,-1.765799999E0
2.414321372E0,2.777499914E0,-2.428400040E0,-5.885799885E0
2.434174497E0,1.132699966E0,-4.394999981E0,-7.513700008E0
2.454027622E0,-5.964999795E-1,-4.482699871E0,-5.766699791E0
2.473879185E0,-1.863599896E0,-2.981199980E0,-1.733599901E0
2.493732310E0,-3.723500013E0,-1.910200000E0,-5.792999864E-1
2.513585435E0,-5.030699730E0,-3.361999989E-1,-1.066200018E0
2.533436997E0,-4.015199661E0,5.500999689E-1,-2.482100010E0
2.553290122E0,-2.158499956E0,7.378999591E-1,-3.165499926E0
2.573143247E0,1.437999964E0,6.809999943E-1,-1.092100024E0
2.592994810E0,6.355799675E0,-4.209999740E-2,1.420199990E0
2.612852622E0,1.000119972E1,-2.163899899E0,1.886999965E0
2.632701060E0,9.780699730E0,-4.774600029E0,2.861999869E-1
2.652552622E0,1.338989925E1,-8.163800240E0,-6.818000078E-1
2.672405747E0,2.205430031E1,-1.025729942E1,6.855999827E-1
2.692258872E0,2.553629875E1,-6.631899834E0,5.126199722E0
2.712111997E0,2.011739922E1,-1.846099973E0,8.325200081E0
2.731963560E0,1.680900002E1,1.010100007E0,7.934099674E0
2.751816685E0,1.377789974E1,4.748999774E-1,1.712000012E0
2.771669810E0,1.269059944E1,1.201999933E-1,-4.486499786E0
2.791522935E0,1.198829937E1,-1.530299902E0,-6.171700001E0
2.811374497E0,9.724999428E0,-2.963399887E0,-1.108899951E0
2.831227622E0,2.710500002E0,-3.925199986E0,2.447299957E0
2.851080747E0,-4.804299831E0,-5.246200085E0,1.945499897E0
2.870932310E0,-7.315399647E0,-3.747099876E0,1.272599936E0
2.890785435E0,-2.431099892E0,-2.737799883E0,3.103699923E0
2.910638560E0,3.040400028E0,-1.884999990E0,7.312399864E0
2.930490122E0,6.365599632E0,-4.063999951E-1,5.940999985E0
2.950343247E0,1.533999920E0,1.480599999E0,-3.526899815E0
2.970196372E0,-2.304699898E0,3.380399942E0,-6.474599838E0
2.990049497E0,-4.284699917E0,5.032599926E0,-1.048589993E1
3.009901060E0,-6.058700085E0,5.454599857E0,-4.381700039E0
3.029754185E0,-6.550499916E0,-3.392899990E0,7.906599998E0
3.049607310E0,-1.299499989E0,-1.756500006E0,1.045029926E1
3.069458872E0,3.944099903E0,2.925199986E0,4.647900105E0
3.089310435E0,4.060599804E0,3.952299833E0,3.393899918E0
3.109169810E0,5.962599754E0,4.556299686E0,2.487400055E0
3.129016685E0,4.152499676E0,5.069099903E0,1.333499908E0
3.148869810E0,-2.290099859E0,4.150599957E0,-9.975000024E-1
3.168722935E0,-7.469799995E0,4.564999938E-1,-4.028299809E0
3.188574497E0,-8.964200020E0,-2.565500021E0,-4.436599731E0
3.208427622E0,-7.136699677E0,-6.492199898E0,-6.872499943E0
3.228280747E0,-1.097399950E0,-9.706199646E0,-9.506699562E0
3.248133872E0,8.331899643E0,6.873999834E-1,-3.229999915E-2
3.267985435E0,5.731299877E0,3.533999920E0,2.809700012E0
3.287838560E0,4.607699871E0,1.018999934E0,2.248499870E0
3.307691685E0,4.977900028E0,-6.829999685E-1,1.240000010E0
3.327543247E0,4.669300079E0,-3.062999845E-1,1.112299919E0
3.347394810E0,4.252900124E0,1.949999928E-1,-1.616799951E0
3.367249497E0,3.087199926E0,-1.720299959E0,-2.900199890E0
3.387101060E0,2.063699961E0,-1.143299937E0,-1.656099916E0
3.406954185E0,-7.970000058E-2,-1.135999918E0,-5.906000137E-1
3.426807310E0,-2.193500042E0,-5.579999685E-1,3.660999835E-1
3.446665122E0,-3.850099802E0,2.034199953E0,1.094699979E0
3.466511997E0,-5.269700050E0,3.392999887E0,7.660999894E-1
3.486365122E0,-5.302599907E0,3.949399948E0,-1.928000003E-1
3.506218247E0,-4.948400021E0,3.639699936E0,-1.397599936E0
3.526069810E0,-4.148799896E0,3.016199827E0,-5.604700089E0
3.545922935E0,-2.006799936E0,2.095999956E0,-3.397499800E0
3.565776060E0,5.939999968E-2,-4.479199886E0,3.033499956E0
3.585627622E0,-4.916100025E0,-1.916029930E1,1.019999944E-2
3.605480747E0,-4.069600105E0,-3.157629967E1,-1.010800004E0
3.625332310E0,-4.881799698E0,-2.782149887E1,1.884799957E0
3.645185435E0,-8.542399406E0,-1.453090000E1,5.407499790E0
3.665038560E0,-6.778699875E0,-4.310599804E0,5.918099880E0
3.684890122E0,-2.471099854E0,2.122400045E0,4.262499809E0
3.704743247E0,2.192100048E0,5.350299835E0,1.067600012E0
3.724596372E0,2.753099918E0,3.718199968E0,-2.301899910E0
3.744447935E0,1.062999964E0,7.655000091E-1,-3.154399872E0
3.764301060E0,8.447999954E-1,-2.962000072E-1,-3.370899916E0
3.784154185E0,6.936999559E-1,-1.115999967E-1,-1.688599944E0
3.804007310E0,3.289999962E-1,3.070999980E-1,1.362200022E0
3.823858872E0,6.812999845E-1,1.079200029E0,2.349599838E0
3.843711997E0,1.013599992E0,2.062599897E0,2.642999887E-1
3.863565122E0,4.754000008E-1,3.162599802E0,-7.925999761E-1
3.883416685E0,5.166999698E-1,4.433399677E0,-1.446099997E0
3.903269810E0,1.073199987E0,5.859600067E0,-2.075500011E0
3.923122935E0,1.968999982E0,7.078199863E0,-2.749599934E0
3.942976060E0,2.697499990E0,5.287499905E0,-5.298199654E0
3.962827622E0,1.118600011E0,-6.492999792E-1,-8.382800102E0
3.982680747E0,5.409999937E-2,-1.800300002E0,1.601149940E1
4.002533872E0,1.891399980E0,1.893299937E0,1.722539902E1
4.022385435E0,1.792099953E0,2.618000031E0,6.993599892E0
4.042238560E0,-2.641999960E0,-4.163599968E0,-1.181519985E1
4.062091685E0,-1.007069969E1,-9.562600136E0,1.199899912E0
4.081943247E0,-7.604099751E0,-1.101149940E1,3.167099953E0
4.101802622E0,-1.876500010E0,-1.011149979E1,3.868199825E0
4.121649497E0,1.752699971E0,-7.272500038E0,4.512399673E0
4.141507310E0,3.531199932E0,-5.207699776E0,1.978999972E0
4.161354185E0,8.380399704E0,-2.836299896E0,-9.749400139E0
4.181207310E0,5.632199764E0,-4.158999920E-1,-1.890399933E0
4.201060435E0,2.275599957E0,2.314199924E0,2.713299990E0
4.220911997E0,-5.309999585E-1,3.737599850E0,1.723899961E0
4.240765122E0,-2.960700035E0,4.419600010E0,-8.812999725E-1
4.260618247E0,-2.657599926E0,4.023099899E0,-9.921000004E-1
4.280471372E0,-3.033599854E0,3.640999794E0,-1.066200018E0
4.300322935E0,-3.224299908E0,7.615000010E-1,-5.061699867E0
4.320176060E0,-1.124799967E0,-4.251899719E0,-6.233599663E0
4.340029185E0,1.992999911E-1,-5.088799953E0,1.345999986E-1
4.359880747E0,1.783199906E0,-5.904099941E0,-2.143399954E0
4.379732310E0,4.636799812E0,-4.030799866E0,-5.586999655E-1
4.399586997E0,7.182499886E0,-4.655999660E0,6.370899677E0
4.419444810E0,7.471199989E0,-7.304299831E0,6.546299934E0
4.439291685E0,5.241399765E0,-1.049030018E1,1.355700016E0
4.459144810E0,-1.541399956E0,-1.153739929E1,1.904899955E0
4.478996372E0,-6.699599743E0,-1.157769966E1,4.408499718E0
4.498849497E0,-1.020930004E1,-1.267199993E1,7.297199726E0
4.518702622E0,-8.842100143E0,-1.233439922E1,6.657099724E0
4.538555747E0,-2.434499979E0,-1.076079941E1,1.211300015E0
4.558407310E0,-5.971600056E0,-4.120999813E0,-1.058539963E1
4.578258872E0,-5.685299873E0,3.448999822E-1,-1.544999927E-1
4.598118247E0,-1.819999933E0,3.708599806E0,5.532000065E0
4.617965122E0,3.757499933E0,5.224699974E0,4.010900021E0
4.637816685E0,9.741399765E0,5.460399628E0,-4.649999738E-2
4.657671372E0,6.704099655E0,4.332299709E0,-4.013599873E0
4.677522935E0,1.074499965E0,4.094900131E0,-6.099499702E0
4.697374497E0,-3.986099958E0,4.856299877E0,-4.036799908E0
4.717229185E0,-4.710499763E0,4.255300045E0,-2.359400034E0
4.737080747E0,2.307000011E-1,2.878799915E0,-8.081099510E0
4.756932310E0,8.541099548E0,2.332799911E0,-1.257310009E1
4.776786997E0,-2.868099928E0,-9.339599609E0,-1.472859955E1
4.796638560E0,-5.012599945E0,-1.351009941E1,-3.232599974E0
4.816491685E0,1.391000003E-1,-6.233699799E0,2.056909943E1
4.836344810E0,-4.172999859E-1,-2.764299870E0,1.644999886E1
4.856196372E0,2.081199884E0,-2.601999938E-1,7.000299931E0
4.876049497E0,7.461999655E-1,-4.964999855E-1,-1.255800009E0
4.895902622E0,-1.723599911E0,-5.734600067E0,-2.898299932E0
4.915754185E0,-2.541899920E0,-9.222700119E0,-9.138000011E-1
4.935607310E0,-4.786999822E-1,-7.190299988E0,-4.584999979E-1
4.955460435E0,2.303200006E0,-2.232199907E0,-1.484200001E0
4.975311997E0,2.489399910E0,1.682500005E0,-2.165799856E0
4.995165122E0,2.200299978E0,4.314300060E0,-1.453199983E0
5.015018247E0,-4.149999842E-2,4.905699730E0,-3.797999918E-1
5.034869810E0,-1.593599916E0,3.642499924E0,6.179999933E-2
5.054722935E0,-1.382799983E0,2.525599957E0,1.312000006E-1
5.074576060E0,-3.323999941E-1,1.420400023E0,-4.023999870E-1
5.094435435E0,5.051000118E-1,1.195799947E0,1.125999987E-1
5.114286997E0,7.867999673E-1,6.565999985E-1,2.589699984E0
5.134133872E0,2.967000008E-1,-2.577999830E-1,4.045199871E0
5.153985435E0,-9.341999888E-1,-2.149999887E-2,3.101199865E0
5.173838560E0,-1.213999987E0,-8.297999501E-1,7.879999876E-1
5.193691685E0,-8.312999606E-1,-2.932899952E0,-7.942999601E-1
5.213544810E0,9.011999965E-1,-6.177999973E0,-1.061999989E1
5.233396372E0,-1.492999941E-1,-3.415099859E0,-4.935299873E0
5.253249497E0,-7.436999679E-1,-2.128200054E0,1.197099924E0
5.273102622E0,-2.592999935E-1,-3.922099829E0,6.966999769E-1
5.292954185E0,1.271099925E0,-5.666599751E0,1.171199918E0
5.312807310E0,3.216199875E0,-4.204699993E0,-4.077399731E0
5.332660435E0,2.336199999E0,-2.744599819E0,-6.330999851E0
5.352513560E0,1.881899953E0,-3.761899948E0,-1.753999889E-1
5.372365122E0,2.545899868E0,-5.464499950E0,5.077099800E0
5.392218247E0,9.945999980E-1,-5.278199673E0,7.454099655E0
5.412071372E0,-1.332000017E0,-4.819900036E0,7.806699753E0
5.431922935E0,-4.219599724E0,-5.578599930E0,5.881700039E0
5.451776060E0,-6.044399738E0,-6.871799946E0,3.685199976E0
5.471627622E0,-5.199999809E0,-8.299799919E0,-8.625999451E0
5.491480747E0,-5.835000038E0,-4.023600101E0,-3.505800009E0
5.511333872E0,-4.113800049E0,4.309999943E-1,1.466599941E0
5.531191685E0,-1.385800004E0,2.355200052E0,3.549999744E-2
5.551038560E0,1.742399931E0,3.153299809E0,5.403000116E-1
5.570890122E0,4.540699959E0,2.590499878E0,1.803099990E0
5.590749497E0,5.037300110E0,2.535599947E0,3.389999866E-1
5.610596372E0,3.865899801E0,3.220099926E0,-1.339399934E0
5.630449497E0,1.907599926E0,4.184999943E0,-2.000099897E0
5.650302622E0,-1.753999889E-1,5.476999760E0,-1.836499929E0
5.670160435E0,-1.267699957E0,7.495499611E0,-7.075999975E-1
5.690007310E0,7.588999867E-1,9.608200073E0,-4.358900070E0
5.709860435E0,3.263899803E0,5.800399780E0,-7.999599934E0
5.729713560E0,-6.497399807E0,-4.668200016E0,-2.703769875E1
5.749565122E0,-7.271100044E0,-1.433389950E1,8.770099640E0
5.769418247E0,8.707999587E-1,-1.067439938E1,2.488379860E1
5.789271372E0,5.960199833E0,-5.197899818E0,1.168970013E1
5.809129185E0,4.483900070E0,5.636000037E-1,2.147199869E0
5.828976060E0,-1.040199995E0,-1.743399978E0,-1.653100014E0
5.848829185E0,-5.422100067E0,-7.165999889E0,-1.871699929E0
5.868680747E0,-4.407999992E0,-8.725600243E0,1.675199986E0
5.888533872E0,6.010999680E-1,-8.363299370E0,2.058399916E0
5.908386997E0,4.544300079E0,-4.645599842E0,-1.529899955E0
5.928240122E0,4.509999752E0,2.692999840E-1,-5.842000008E0
5.948097935E0,2.922299862E0,3.160599947E0,-4.561100006E0
5.967944810E0,7.224999666E-1,2.909299850E0,-2.470099926E0
5.987797935E0,-1.199000001E0,1.565199971E0,-7.019999623E-2
6.007649497E0,-2.132999897E0,1.514099956E0,2.704799891E0
6.027502622E0,-2.856199980E0,2.496599913E0,3.265699863E0
6.047354185E0,-2.655499935E0,2.778100014E0,2.197099924E0
6.067207310E0,-1.680400014E0,2.129299879E0,1.672299981E0
6.087060435E0,2.149999887E-1,9.247999787E-1,1.308399916E0
6.106913560E0,1.163999915E0,7.899999619E-3,1.409199953E0
6.126765122E0,1.931399941E0,-2.078999996E0,1.032899976E0
6.146618247E0,3.182199955E0,-5.801300049E0,-8.599299431E0
6.166471372E0,1.316200018E0,-4.525099754E0,-5.228699684E0
6.186322935E0,-1.238999963E-1,-3.623099804E0,-1.833999902E-1
6.206176060E0,1.390999913E0,-3.711199999E0,-1.545599937E0
6.226035435E0,3.459399939E0,-5.770999908E0,-4.587999880E-1
6.245880747E0,3.908499956E0,-6.837299824E0,2.357800007E0
6.265733872E0,1.671499968E0,-6.410500050E0,4.442599773E0
6.285586997E0,-1.816999912E0,-5.782499790E0,5.812999725E0
6.305440122E0,-5.472699642E0,-6.597699642E0,5.171099663E0
6.325291685E0,-6.953099728E0,-8.538199425E0,3.967099905E0
6.345144810E0,-6.153199673E0,-1.060050011E1,1.927500010E0
6.364997935E0,-4.551799774E0,-7.527599812E0,-1.396099925E0
6.384849497E0,-2.340499878E0,-3.225999832E0,-1.822299957E0
6.404702622E0,3.956999779E-1,-2.830999792E-1,1.992999911E-1
6.424555747E0,2.703299999E0,1.620599985E0,1.148000002E0
6.444408872E0,3.052399874E0,2.755300045E0,1.628999949E0
6.464260435E0,1.890299916E0,3.894199848E0,-5.119999871E-2
6.484113560E0,5.636000037E-1,4.759299755E0,-4.314999878E-1
6.503971372E0,-1.486999989E-1,5.243999958E0,-1.080399990E0
6.523818247E0,-8.039999753E-2,4.997099876E0,-2.871500015E0
6.543671372E0,2.561999857E-1,4.709399700E0,-3.868099928E0
6.563524497E0,9.318999648E-1,4.756799698E0,-3.475999832E0
6.583382310E0,1.663800001E0,4.474299908E0,-4.178899765E0
6.603229185E0,4.949599743E0,4.165100098E0,-6.717599869E0
6.623082310E0,5.072999954E0,3.969999775E-2,-1.088999939E1
6.642935435E0,1.832599998E0,-5.207699776E0,-7.437899590E0
6.662786997E0,9.106000066E-1,-7.457099915E0,-3.073799849E0
6.682640122E0,2.544600010E0,-8.728499413E0,-4.803199768E0
6.702493247E0,-1.574299932E0,-1.498619938E1,-2.775000036E-1
6.722344810E0,-6.357999802E0,-1.513089943E1,9.564299583E0
6.742197935E0,-4.756799698E0,-5.166800022E0,1.098799992E1
6.762051060E0,-6.096999645E-1,5.057199955E0,4.846799850E0
6.781904185E0,9.812999964E-1,8.099499702E0,2.609899998E0
6.801755747E0,-1.179000020E0,5.447799683E0,1.509999949E-2
6.821608872E0,-2.427199841E0,-1.407699943E0,-2.424000025E0
6.841461997E0,-9.389999509E-1,-5.229199886E0,-2.573199987E0
6.861313560E0,1.360599995E0,-6.601099968E0,-1.507099986E0
6.881166685E0,2.763599873E0,-5.670000076E0,5.363999605E-1
6.901019810E0,2.556900024E0,-3.092000008E0,2.827499866E0
6.920871372E0,3.638399839E0,-6.818000078E-1,3.814099789E0
6.940724497E0,3.863299847E0,-6.089999676E-1,-8.251999617E-1
6.960577622E0,3.794600010E0,1.139099956E0,-7.041999817E0
6.980429185E0,2.809599876E0,3.362999856E-1,-1.374300003E0
7.000282310E0,3.716999888E-1,2.563000023E-1,2.152999938E-1
7.020135435E0,-1.846099973E0,-3.399999812E-3,3.749999776E-2
7.039988560E0,-3.938499928E0,-9.722999930E-1,-4.457999706E0
7.059840122E0,-2.649299860E0,-1.445500016E0,-1.906199932E0
7.079697935E0,-9.370999932E-1,-1.484499931E0,-1.921999902E-1
7.099546372E0,9.809999913E-2,-2.146100044E0,-6.338999867E-1
7.119397935E0,1.212499976E0,-3.383199930E0,-1.327999979E-1
7.139251060E0,2.364699841E0,-3.832199812E0,8.025999665E-1
7.159104185E0,1.029500008E0,-3.336899996E0,-8.855999708E-1
7.178955747E0,-5.961999893E-1,-2.307699919E0,-3.043900013E0
7.198813560E0,2.931999862E-1,-3.903899908E0,-1.343999952E-1
7.218661997E0,3.878899813E0,-6.435800076E0,3.588199854E0
7.238513560E0,5.007400036E0,-7.992699623E0,5.410599709E0
7.258366685E0,1.576599956E0,-7.958399773E0,5.310899734E0
7.278219810E0,-3.093400002E0,-8.571199417E0,4.084199905E0
7.298071372E0,-7.659299850E0,-1.038959980E1,4.254399776E0
7.317924497E0,-7.136999607E0,-1.000990009E1,3.781599998E0
7.337777622E0,-3.299299955E0,-8.271299362E0,-1.421800017E0
7.357630747E0,-3.957199812E0,-3.947599888E0,-6.890999794E0
7.377482310E0,-2.429899931E0,-4.167999923E-1,-9.946999550E-1
7.397333872E0,1.142999977E-1,2.751299858E0,4.544899940E0
7.417186997E0,1.788199902E0,4.721499920E0,2.233199835E0
7.437040122E0,3.673099995E0,5.391499996E0,1.565999985E-1
7.456893247E0,3.221499920E0,4.674699783E0,-1.846699953E0
7.476744810E0,2.546799898E0,3.167299986E0,-2.895399809E0
7.496597935E0,1.661499977E0,2.592000008E0,-2.239699841E0
7.516451060E0,7.109999657E-2,3.016599894E0,-7.653999925E-1
7.536304185E0,-1.187999994E-1,4.309099674E0,-9.598999619E-1
7.556155747E0,1.320899963E0,5.825900078E0,-2.576200008E0
7.576015122E0,3.624300003E0,6.487999916E0,-5.231899738E0
7.595861997E0,5.724499702E0,5.208899975E0,-1.166239929E1
7.615713560E0,5.163999796E-1,-5.767499924E0,-1.648099899E1
7.635566685E0,-7.227900028E0,-2.044549942E1,-1.890789986E1
7.655419810E0,1.845399976E0,-1.741709900E1,1.360339928E1
7.675271372E0,3.067600012E0,-3.123600006E0,2.498789978E1
7.695124497E0,4.447700024E0,8.159099579E0,-1.429199934E0
7.714977622E0,1.834100008E0,1.130869961E1,1.589100003E0
7.734829185E0,-5.296999931E0,5.064199924E0,1.201999933E-1
7.754682310E0,-8.422499657E0,-3.760999918E0,-1.136899948E0
7.774535435E0,-5.913799763E0,-9.449699402E0,7.572999597E-1
7.794388560E0,-5.329999700E-2,-1.341529942E1,-1.746899962E0
7.814240122E0,3.568199873E0,-9.324099541E0,-1.587599993E0
7.834093247E0,2.544399977E0,-2.885200024E0,7.750000060E-2
7.853946372E0,1.611599922E0,1.694000006E0,4.852999747E-1
7.873797935E0,9.786999822E-1,4.079699993E0,1.467999935E0
7.893655747E0,3.172600031E0,4.332200050E0,-2.026000023E0
7.913504185E0,4.380599976E0,3.237099886E0,-4.086400032E0
7.933355747E0,2.527899981E0,1.183200002E0,-2.048300028E0
7.953208872E0,-6.324999928E-1,-9.721999764E-1,3.555999994E-1
7.973061997E0,-3.179800034E0,-1.431899905E0,2.291699886E0
7.992915122E0,-3.898699999E0,-2.991999984E-1,2.251099825E0
8.012766685E0,-3.173199892E0,7.784000039E-1,1.601999998E0
8.032624497E0,-1.987599969E0,5.686999559E-1,8.305000067E-1
8.052472935E0,-9.199999571E-1,-1.049199939E0,-2.529999912E-1
8.072330747E0,3.649999797E-1,-3.549599886E0,-7.955999851E0
8.092177622E0,1.288399935E0,-4.540599823E0,-5.125099659E0
8.112030747E0,1.462999940E0,-3.061100006E0,7.069999576E-1
8.131882310E0,7.876999974E-1,-2.180700064E0,2.307000011E-1
8.151735435E0,1.151799917E0,-3.140100002E0,-4.088599682E0
8.171593247E0,2.498199940E0,-4.467899799E0,-1.649199963E0
8.191441685E0,4.699100018E0,-6.212199688E0,4.029200077E0
8.211293247E0,6.572299957E0,-8.388500214E0,7.044199944E0
8.231146372E0,4.040400028E0,-1.000169945E1,6.319599628E0
8.250999497E0,-1.236199975E0,-1.018480015E1,4.902599812E0
8.270851060E0,-5.053599834E0,-1.019149971E1,4.325799942E0
8.290704185E0,-4.377900124E0,-8.713099480E0,2.841699839E0
8.310555747E0,-2.958299875E0,-5.412699699E0,-5.442000031E-1
8.330408872E0,-1.286000013E0,-2.460999966E0,-4.381299973E0
8.350261997E0,3.648999929E-1,-3.201999962E-1,1.984699965E0
8.370113560E0,5.609999970E-2,1.235700011E0,1.321799994E0
8.389966685E0,3.145000041E-1,3.760599852E0,7.001999617E-1
8.409819810E0,8.501999974E-1,5.508699894E0,3.594000041E-1
8.429672935E0,1.199000001E0,5.008199692E0,-1.099300027E0
8.449526060E0,1.272099972E0,3.645399809E0,-1.994699955E0
8.469377622E0,4.232999980E-1,1.755399942E0,-2.455099821E0
8.489230747E0,-8.154000044E-1,1.571099997E0,-1.800799966E0
8.509082310E0,-1.685199976E0,3.546799898E0,-1.460899949E0
8.528935435E0,-7.842999697E-1,5.972599983E0,-2.557399988E0
8.548788560E0,1.810299993E0,6.594699860E0,-5.610699654E0
8.568646372E0,5.745699883E0,3.727899790E0,-8.402099609E0
8.588499497E0,4.398200035E0,-3.502099991E0,-1.055630016E1
8.608346372E0,6.685000062E-1,-7.371199608E0,-2.666999817E0
8.628199497E0,-7.197999954E-1,-6.226699829E0,-6.621999741E-1
8.648051060E0,1.902300000E0,-6.358500004E0,-8.016799927E0
8.667904185E0,3.941699982E0,-1.117560005E1,8.126099586E0
8.687755747E0,4.242799759E0,-1.262580013E1,5.204899788E0
8.707608872E0,-3.050299883E0,-4.658099651E0,8.085999489E0
8.727461997E0,-3.223399878E0,3.065399885E0,3.537699938E0
8.747313560E0,-2.421799898E0,5.231199741E0,5.435999632E-1
8.767168247E0,-2.983399868E0,4.039999962E0,-1.165999994E-1
8.787019810E0,-2.144799948E0,-3.199000061E-1,-9.120999575E-1
8.806872935E0,-2.908000052E-1,-3.333199978E0,-5.918999910E-1
8.826724497E0,2.140100002E0,-3.990399837E0,-1.789999940E-2
8.846577622E0,3.491999865E0,-2.217999935E0,1.181200027E0
8.866430747E0,2.554499865E0,-3.533000052E-1,1.551299930E0
8.886282310E0,1.763599992E0,-6.599999964E-2,9.903999567E-1
8.906135435E0,2.191400051E0,3.412999809E-1,-6.321799755E0
8.925988560E0,1.557500005E0,8.084999919E-1,-7.980799675E0
8.945841685E0,1.397699952E0,-9.629999846E-2,-2.302899837E0
8.965693247E0,-6.432999969E-1,1.528999954E-1,3.343600035E0
8.985546372E0,-2.454099894E0,8.693000078E-1,5.253799915E0
9.005399497E0,-2.640899897E0,1.125199914E0,3.293699980E0
9.025251060E0,-2.904399872E0,1.020499945E0,6.133999825E-1
9.045104185E0,-2.398900032E0,1.432999969E-1,-9.881999493E-1
9.064963560E0,-8.328999877E-1,-2.599900007E0,-6.629499912E0
9.084808872E0,1.332799911E0,-2.176699877E0,-2.649799824E0
9.104661997E0,3.861699820E0,-1.852699995E0,1.805499911E0
9.124515122E0,5.341700077E0,-2.707799911E0,3.029700041E0
9.144372935E0,3.425199986E0,-2.833699942E0,9.386000037E-1
9.164219810E0,-5.816999674E-1,-2.741899967E0,-5.201200008E0
9.184072935E0,-1.861299992E0,-4.557499886E0,-3.892899990E0
9.203926060E0,-3.820999861E-1,-5.586199760E0,-9.796999693E-1
9.223777622E0,2.452399969E0,-5.003799915E0,1.518700004E0
9.243630747E0,3.309999943E0,-4.946099758E0,5.164400101E0
9.263483872E0,1.169700027E0,-5.450699806E0,5.834099770E0
9.283341685E0,-2.481699944E0,-7.770399570E0,4.336699963E0
9.303188560E0,-6.378699780E0,-9.504399300E0,4.568999767E0
9.323041685E0,-7.120899677E0,-9.724699974E0,3.506799936E0
9.342894810E0,-5.174399853E0,-6.133599758E0,-3.585099936E0
9.362746372E0,-4.058099747E0,-2.024899960E0,-6.059700012E0
9.382599497E0,-1.043699980E0,9.267999530E-1,2.031800032E0
9.402452622E0,1.631599903E0,1.991799951E0,2.616400003E0
9.422304185E0,3.275799990E0,2.598199844E0,1.181599975E0
9.442157310E0,3.571799994E0,3.244899988E0,1.254599929E0
9.462010435E0,2.082200050E0,3.278499842E0,-3.613999784E-1
9.481861997E0,1.236999989E0,4.377399921E0,-1.690699935E0
9.501713560E0,3.152000010E-1,5.115900040E0,-2.503799915E0
9.521568247E0,-3.210999966E-1,5.124399662E0,-2.512699842E0
9.541421372E0,1.472000033E-1,5.351199627E0,-2.841399908E0
9.561279185E0,1.558599949E0,5.152999878E0,-6.130099773E0
9.581126060E0,3.233999968E0,5.583799839E0,-1.127639961E1
9.600979185E0,2.074300051E0,-2.136499882E0,-1.169379997E1
9.620830747E0,2.135999948E-1,-9.666799545E0,-8.214599609E0
9.640683872E0,-1.130100012E0,-1.152260017E1,5.207999945E-1
9.660536997E0,-1.444000006E0,-8.458499908E0,-2.065299988E0
9.680390122E0,-3.292899847E0,-7.506399632E0,-3.407999992E0
9.700241685E0,-4.003099918E0,-1.041309929E1,-6.815999746E-1
9.720094810E0,-1.722199917E0,-7.496099949E0,7.882799625E0
9.739947935E0,1.533000022E-1,1.960000023E-2,7.871500015E0
9.759799497E0,5.457000136E-1,5.734899998E0,4.304500103E0
9.779652622E0,7.597999573E-1,7.101500034E0,2.976000011E-1
9.799504185E0,-1.842999905E-1,3.408099890E0,-1.453699946E0
9.819357310E0,-4.390999973E-1,-1.928200006E0,-1.751899958E0
9.839208872E0,2.929999828E-1,-6.109299660E0,3.955999911E-1
9.859063560E0,2.386800051E0,-6.969599724E0,2.221899986E0
9.878916685E0,3.624300003E0,-4.094399929E0,2.733899832E0
9.898768247E0,2.894999981E0,-6.739000082E-1,1.307999969E0
9.918619810E0,1.597199917E0,1.708699942E0,-8.379999995E-1
9.938472935E0,-7.239999771E-1,4.032799721E0,-7.645899773E0
9.958326060E0,-9.858999848E-1,2.379600048E0,-5.002699852E0
9.978183872E0,-5.382999778E-1,3.062999845E-1,-1.013899922E0
9.998030747E0,-2.004799843E0,-1.546399951E0,-1.973899961E0
1.001788387E1,-1.691699982E0,-2.321799994E0,-1.146999970E-1
1.003773700E1,-2.745999992E-1,-1.027199984E0,2.430399895E0
1.005759481E1,2.589999884E-2,-2.913999856E-1,2.430500031E0
1.007744168E1,5.486999750E-1,-6.171000004E-1,2.228600025E0
1.009729481E1,2.581000030E-1,-1.283299923E0,8.190999627E-1
1.011714637E1,2.951999903E-1,-2.270699978E0,-3.734000027E-1
1.013699950E1,1.358799934E0,-2.284899950E0,-1.207099915E0
1.015685106E1,1.874300003E0,-1.737800002E0,-3.233000040E-1
1.017670418E1,9.862999916E-1,-1.827399969E0,-1.552999914E-1
1.019655731E1,-1.335199952E0,-2.363199949E0,-3.315399885E0
1.021641044E1,-2.271199942E0,-4.664700031E0,-4.891599655E0
1.023626200E1,5.978999734E-1,-6.487899780E0,-1.561699986E0
1.025611512E1,4.665499687E0,-5.635499954E0,3.520200014E0
1.027596825E1,5.617399693E0,-4.904399872E0,6.362699986E0
1.029582137E1,2.122999907E0,-4.958499908E0,5.314799786E0
1.031567294E1,-1.939799905E0,-6.067199707E0,3.163300037E0
1.033552606E1,-5.234999657E0,-8.001299858E0,2.846499920E0
1.035537918E1,-5.170199871E0,-8.354800224E0,2.753299952E0
1.037523075E1,-2.739500046E0,-6.303499699E0,-1.207999960E-1
1.039508387E1,-2.886699915E0,-3.095999956E0,-4.053400040E0
1.041493700E1,-1.252399921E0,-9.939999580E-1,-7.838999629E-1
1.043479012E1,4.600999951E-1,6.657999754E-1,2.078399897E0
1.045464168E1,1.225000024E0,2.775699854E0,1.805699944E0
1.047449481E1,1.952699900E0,3.949899912E0,1.239399910E0
1.049434794E1,1.821200013E0,4.416800022E0,-4.541999996E-1
1.051419950E1,4.605000019E-1,4.358599663E0,-1.931299925E0
1.053405731E1,-2.209999971E-2,4.058199883E0,-2.202499866E0
1.055390575E1,-3.253999949E-1,4.520299911E0,-2.312199831E0
1.057375731E1,1.032400012E0,5.069999695E0,-2.632200003E0
1.059361044E1,3.523399830E0,5.314499855E0,-5.050699711E0
1.061346356E1,6.328899860E0,4.054299831E0,-8.049399376E0
1.063331668E1,3.824699879E0,-1.712999940E0,-9.594900131E0
1.065316825E1,2.074999958E-1,-8.243499756E0,-7.157399654E0
1.067302137E1,-6.509999633E-1,-1.027279949E1,-1.009400010E0
1.069287450E1,-6.863999963E-1,-9.670700073E0,-2.122499943E0
1.071272606E1,-6.511999965E-1,-1.219740009E1,-3.424499989E0
1.073257762E1,2.001999915E-1,-1.122149944E1,8.590999842E-1
1.075243231E1,1.860599995E0,-8.252999783E-1,9.564299583E0
1.077228387E1,6.189000010E-1,6.247799873E0,7.537699699E0
1.079213700E1,-8.240000010E-1,8.411299706E0,2.874799967E0
1.081199012E1,-1.819000006E0,6.666399956E0,-1.537499905E0
1.083184325E1,-2.279199839E0,1.439099908E0,-4.386399746E0
1.085169481E1,-1.012699962E0,-2.915299892E0,-2.860499859E0
1.087154794E1,1.316299915E0,-5.777899742E0,-3.922999799E-1
1.089140106E1,3.542399883E0,-6.323699951E0,9.998999834E-1
1.091125262E1,3.429399967E0,-3.830199957E0,1.689999938E0
1.093110575E1,1.923999906E0,-7.452999949E-1,9.979999661E-1
1.095095887E1,2.856999934E-1,2.107699871E0,-4.362800121E0
1.097081044E1,-1.773999929E0,2.438400030E0,-7.619400024E0
1.099066356E1,-7.067999840E-1,2.847999930E-1,-2.740700006E0
1.101051668E1,2.070999891E-1,-1.072199941E0,2.315999985E0
1.103036825E1,-6.399999838E-3,-1.296000034E-1,4.854899883E0
1.105022606E1,-4.382999837E-1,1.302600026E0,3.957700014E0
1.107007294E1,-9.420999885E-1,2.088399887E0,1.256500006E0
1.108992606E1,-1.404399991E0,1.331200004E0,-3.270999789E-1
1.110977918E1,-2.093899965E0,-1.512799978E0,-4.169799805E0
1.112963231E1,-1.362599969E0,-2.727099895E0,-7.310499668E0
1.114948544E1,5.324999690E-1,-2.256399870E0,-1.409999967E0
1.116933700E1,2.685499907E0,-1.784899950E0,2.016000032E0
1.118919012E1,4.908499718E0,-2.500200033E0,1.035599947E0
1.120904168E1,5.767299652E0,-3.645599842E0,-7.899999619E-1
1.122889481E1,4.355999947E0,-4.163000107E0,-1.584599972E0
1.124874794E1,1.871899962E0,-4.847399712E0,1.050899982E0
1.126859950E1,-1.149600029E0,-5.326299667E0,2.100899935E0
1.128845262E1,-2.619999886E0,-5.576200008E0,4.154500008E0
1.130830575E1,-4.518399715E0,-6.892799854E0,4.275399685E0
1.132815731E1,-7.068999767E0,-9.244599342E0,3.777999878E0
1.134801044E1,-6.885200024E0,-1.054539967E1,3.333299875E0
1.136786356E1,-6.895899773E0,-6.910699844E0,-1.274399996E0
1.138771512E1,-3.151099920E0,-2.212899923E0,-1.448899984E0
1.140756825E1,1.737699986E0,2.859999985E-2,-1.441399932E0
1.142742137E1,4.890799999E0,1.314299941E0,7.696999907E-1
1.144727450E1,5.402400017E0,2.148699999E0,7.073999643E-1
1.146712606E1,2.140499830E0,2.843299866E0,8.269999623E-1
1.148697919E1,-1.295000017E-1,3.186199903E0,1.434399962E0
1.150683231E1,-1.659999967E0,4.002200127E0,2.769999951E-2
1.152668387E1,-1.731299996E0,4.802199841E0,-1.037500024E0
1.154653700E1,-1.070899963E0,3.803699970E0,-2.275899887E0
1.156639012E1,-1.039499998E0,3.260200024E0,-3.255800009E0
1.158624169E1,-3.177999854E-1,3.947899818E0,-2.835099936E0
1.160609481E1,1.297999978E0,4.947899818E0,-3.418499947E0
1.162594794E1,3.776199818E0,5.191799641E0,-7.301599979E0
1.164580106E1,4.048900127E0,-1.079999935E-2,-1.165670013E1
1.166565262E1,7.037000060E-1,-6.142699718E0,-8.790599823E0
1.168550575E1,4.439999759E-1,-8.950099945E0,-3.033200026E0
1.170535887E1,1.473999977E0,-9.651999474E0,-3.662899971E0
1.172521044E1,1.139999926E-2,-1.302689934E1,-2.736199856E0
1.174506356E1,-1.691100001E0,-1.412459946E1,5.082299709E0
1.176491669E1,-5.863999724E-1,-3.347399950E0,1.186219978E1
1.178476981E1,-8.669999987E-2,6.306099892E0,6.997599602E0
1.180462137E1,-2.397999913E-1,9.892700195E0,1.107200027E0
1.182447450E1,-1.256600022E0,7.625799656E0,-1.945599914E0
1.184432762E1,-2.236700058E0,1.136699915E0,-4.199500084E0
1.186417919E1,-1.574699998E0,-4.117799759E0,-2.912999868E0
1.188403231E1,-2.347999960E-1,-7.305999756E0,-8.429999948E-1
1.190388544E1,2.340399981E0,-7.946599960E0,-9.829999506E-2
1.192373700E1,2.407500029E0,-4.206699848E0,1.915499926E0
1.194359012E1,1.899599910E0,-3.429999948E-1,3.879599810E0
1.196344325E1,2.291899920E0,3.392999768E-1,1.470099926E0
1.198329481E1,2.963299990E0,8.319000006E-1,-7.449399948E0
1.200314794E1,2.915099859E0,6.164999604E-1,-4.803999901E0
1.202300106E1,1.309299946E0,-5.689999834E-2,-5.173000097E-1
1.204285887E1,-1.052699924E0,7.265999913E-1,1.660499930E0
1.206270575E1,-2.387599945E0,1.388499975E0,2.390899897E0
1.208255731E1,-2.928499937E0,1.443599939E0,9.257999659E-1
1.210241044E1,-2.183300018E0,4.472999871E-1,-3.304999769E-1
1.212226356E1,-1.232800007E0,-6.202999949E-1,-3.842999935E-1
1.214211669E1,-1.048900008E0,-1.652300000E0,-7.540000081E-1
1.216196981E1,-6.939999759E-2,-3.079099894E0,-3.544699907E0
1.218182137E1,1.195699930E0,-3.046700001E0,-2.557299852E0
1.220167450E1,1.852599978E0,-2.524600029E0,1.044999957E-1
1.222152762E1,1.973799944E0,-2.613199949E0,-3.739999831E-1
1.224138075E1,1.634999990E0,-3.862399817E0,-3.130100012E0
1.226123231E1,2.121000051E0,-6.067800045E0,-1.260900021E0
1.228108544E1,3.528699875E0,-6.829699993E0,1.900900006E0
1.230093856E1,3.039599895E0,-6.607199669E0,4.640399933E0
1.232079012E1,6.135999560E-1,-6.205399990E0,5.754999638E0
1.234064325E1,-3.010099888E0,-6.746599674E0,4.888199806E0
1.236049637E1,-6.399199963E0,-8.153200150E0,3.948499918E0
1.238034794E1,-5.882999897E0,-8.669599533E0,3.293799877E0
1.240020106E1,-2.918599844E0,-7.438799858E0,1.658800006E0
1.242005419E1,-3.866499901E0,-3.690099955E0,-2.439399958E0
1.243990731E1,-2.296799898E0,-1.149999976E0,-3.699199915E0
1.245975887E1,1.054899931E0,1.349499941E0,2.894099951E0
1.247961200E1,2.982199907E0,3.118000031E0,2.290899992E0
1.249946512E1,3.999499798E0,3.790299892E0,-6.577000022E-1
1.251931669E1,3.380499840E0,4.147999763E0,-1.046000004E0
1.253917450E1,1.012199998E0,3.677999973E0,-2.018899918E0
1.255902137E1,-9.214999676E-1,4.053499699E0,-1.597399950E0
1.257887450E1,-2.120699883E0,4.319699764E0,-1.346599936E0
1.259872762E1,-2.213099957E0,4.345499992E0,-1.635299921E0
1.261858075E1,-1.114599943E0,4.808000088E0,-1.935999990E0
1.263843231E1,8.144999743E-1,5.276400089E0,-4.460199833E0
1.265828544E1,3.086599827E0,5.315399647E0,-8.934700012E0
1.267813700E1,2.062000036E0,-1.885800004E0,-1.050469971E1
1.269799012E1,9.589999914E-1,-5.730899811E0,-3.900699854E0
1.271784325E1,3.487200022E0,-6.746799946E0,-4.381899834E0
1.273769637E1,7.578699589E0,-5.856699944E0,-2.839999914E0
1.275754794E1,3.094399929E0,-8.147399902E0,5.827199936E0
1.277740106E1,-3.673499823E0,-1.511579990E1,-3.597399950E0
1.279725419E1,-6.181599617E0,-6.575199604E0,8.064800262E0
1.281710575E1,-5.259699821E0,4.589999676E0,8.138899803E0
1.283695887E1,-1.763899922E0,8.606200218E0,3.413999796E0
1.285681200E1,-8.862999678E-1,6.608099937E0,1.603899956E0
1.287666356E1,-8.794999719E-1,-1.615999937E-1,-2.264299870E0
1.289651668E1,-5.794999599E-1,-4.848599911E0,-2.882599831E0
1.291636981E1,9.003999829E-1,-6.440499783E0,-2.227900028E0
1.293622137E1,2.368999958E0,-5.694999695E0,-1.280900002E0
1.295607450E1,2.069599867E0,-3.154999971E0,5.435000062E-1
1.297592762E1,1.544399977E0,-1.225299954E0,2.314800024E0
1.299578075E1,1.828899980E0,-3.437999785E-1,3.252499819E0
1.301563231E1,3.560899973E0,-4.224999845E-1,-8.800999522E-1
1.303548544E1,4.145599842E0,3.005999923E-1,-7.775399685E0
1.305533856E1,2.576900005E0,1.639000028E-1,-3.291800022E0
1.307519012E1,-9.730000049E-2,5.273000002E-1,1.104300022E0
1.309504325E1,-2.496599913E0,1.104300022E0,3.182699919E0
1.311489637E1,-3.516700029E0,1.277799964E0,3.223999977E0
1.313474794E1,-3.058599949E0,1.174199939E0,9.641000032E-1
1.315460106E1,-1.857599974E0,9.623999596E-1,-5.880999565E-1
1.317445262E1,-9.156000018E-1,2.027999908E-1,-6.348999739E-1
1.319430575E1,-6.581000090E-1,-1.439899921E0,-2.310999930E-1
1.321415887E1,-2.001800060E0,-3.475099802E0,-1.055589962E1
1.323401200E1,-9.305999875E-1,-3.332099915E0,-4.454699993E0
1.325386512E1,1.813300014E0,-3.101999998E0,2.007099867E0
1.327371825E1,3.229799986E0,-3.359499931E0,2.928900003E0
1.329356825E1,5.001499653E0,-5.386499882E0,2.082999945E0
1.331342294E1,6.065899849E0,-7.370599747E0,2.740000002E-2
1.333327606E1,3.640799999E0,-7.134899616E0,1.439999975E-2
1.335312762E1,-1.812999964E0,-5.061699867E0,1.055799961E0
1.337298075E1,-4.558000088E0,-3.885199785E0,2.780999899E0
1.339283387E1,-5.307899952E0,-5.582299709E0,4.358799934E0
1.341268544E1,-3.961499929E0,-7.423599720E0,3.990799904E0
1.343253856E1,-2.624500036E0,-7.620399952E0,3.498099804E0
1.345239168E1,-2.813799858E0,-4.951600075E0,7.475000024E-1
1.347224325E1,-1.439999975E-2,-2.366099834E0,-4.806299686E0
1.349209637E1,1.524599910E0,1.645999998E-1,-1.205399990E0
1.351194950E1,2.322999954E0,3.038899899E0,1.832599998E0
1.353180731E1,2.571699858E0,4.740699768E0,2.683899879E0
1.355165262E1,9.833999872E-1,5.172100067E0,4.189999774E-2
1.357150731E1,-5.651000142E-1,4.149199963E0,-2.161900043E0
1.359136044E1,-9.143999815E-1,3.080999851E0,-3.092099905E0
1.361121200E1,-6.380999684E-1,2.608199835E0,-2.194700003E0
1.363106512E1,-6.705999970E-1,3.298899889E0,-8.836999536E-1
1.365091825E1,-8.896999955E-1,4.467899799E0,-1.437799931E0
1.367077137E1,-7.759000063E-1,5.467799664E0,-2.538100004E0
1.369062294E1,1.546199918E0,5.298699856E0,-4.500899792E0
1.371047606E1,3.815699816E0,2.234599829E0,-9.982899666E0
1.373032918E1,2.740399837E0,-5.230000019E0,-1.621489906E1
1.375018075E1,1.070199966E0,-1.774519920E1,-2.163679886E1
1.377003387E1,8.492999673E-1,-1.383249950E1,2.136310005E1
1.378988544E1,-1.237399936E0,-1.706399918E0,2.491259956E1
1.380973856E1,2.700899839E0,6.350199699E0,1.226299953E1
1.382959168E1,6.109999865E-2,8.401700020E0,-4.436199665E0
1.384944325E1,-4.336699963E0,7.728999853E-1,-4.866099834E0
1.386929637E1,-6.435400009E0,-6.212999821E0,-2.618899822E0
1.388914950E1,-4.796400070E0,-1.148499966E1,6.391999722E-1
1.390900106E1,6.722999811E-1,-1.426189995E1,1.555899978E0
1.392885418E1,3.998799801E0,-9.632599831E0,2.609899998E0
1.394870731E1,3.352799892E0,-3.166800022E0,2.345399857E0
1.396855887E1,3.299000025E0,2.658399820E0,-6.254899979E0
1.398841200E1,2.699300051E0,5.270299911E0,-7.867300034E0
1.400826512E1,1.136199951E0,4.081799984E0,-1.635800004E0
1.402812294E1,-1.134400010E0,3.637099981E0,3.836399794E0
1.404796981E1,-3.738799810E0,3.199499846E0,5.518499851E0
1.406782294E1,-4.639199734E0,3.782399893E0,2.774499893E0
1.408767606E1,-5.054599762E0,2.561899900E0,-3.744099855E0
1.410752762E1,-1.431199908E0,-2.052700043E0,-1.130499959E0
1.412738075E1,1.230999947E0,-3.961399794E0,1.530999988E-1
1.414723387E1,2.607300043E0,-4.686100006E0,-4.717999995E-1
1.416708544E1,3.278299809E0,-5.762899876E0,-4.018399715E0
1.418693856E1,3.321499825E0,-4.810899734E0,-4.668200016E0
1.420679168E1,3.802099943E0,-3.334899902E0,-3.298599958E0
1.422664325E1,3.095899820E0,-2.904199839E0,-6.750000119E-1
1.424649637E1,4.746099949E0,-5.310999870E0,4.597000122E0
1.426634950E1,6.313899994E0,-8.175899506E0,7.819399834E0
1.428620106E1,3.232399940E0,-1.013140011E1,7.134199619E0
1.430605418E1,-1.803200006E0,-1.289279938E1,5.376399994E0
1.432590731E1,-7.305399895E0,-1.496149921E1,6.165999889E0
1.434575887E1,-8.464300156E0,-1.403989983E1,4.994999886E0
1.436561200E1,-5.213500023E0,-9.565799713E0,-1.647699952E0
1.438546512E1,-3.701099873E0,-2.379199982E0,-7.273200035E0
1.440531825E1,-7.331999540E-1,2.510399818E0,1.569499969E0
1.442517137E1,2.246999979E0,5.149399757E0,4.874899864E0
1.444502294E1,3.569000006E0,5.637300014E0,3.208999932E-1
1.446487606E1,3.287699938E0,5.436899662E0,-1.052399993E0
1.448472918E1,1.917999983E0,4.467799664E0,-2.816399813E0
1.450458075E1,7.897999883E-1,3.827899933E0,-3.310799837E0
1.452443856E1,-6.514999866E-1,4.080800056E0,-3.753899813E0
1.454428700E1,-1.398800015E0,2.376699924E0,-3.416499853E0
1.456414325E1,-1.526399970E0,1.853899956E0,-3.531299829E0
1.458399168E1,1.250000000E-1,2.541100025E0,-3.576900005E0
1.460384325E1,3.371299982E0,2.575500011E0,-5.743199825E0
1.462369637E1,3.526099920E0,5.782999992E-1,-9.967299461E0
1.464354950E1,1.469900012E0,-1.416199923E0,-5.965699673E0
1.466340262E1,7.195000052E-1,-1.617699981E0,3.642999828E-1
1.468325575E1,7.098000050E-1,-1.785499930E0,2.938999832E-1
1.470310731E1,9.803999662E-1,-1.382900000E0,-1.106899977E0
1.472296044E1,2.404599905E0,-1.122999936E-1,4.552000046E0
1.474281356E1,-4.399999976E-1,-4.781999886E-1,8.056399345E0
1.476266512E1,-1.782499909E0,-1.471519947E1,-1.119329929E1
1.478251825E1,-9.205999374E0,-1.726879883E1,4.590600014E0
1.480236981E1,-5.325399876E0,-4.790999889E0,5.850299835E0
1.482222450E1,-3.691999912E-1,2.972299814E0,3.648199797E0
1.484207450E1,1.133700013E0,6.937199593E0,3.316499949E0
1.486192919E1,1.735899925E0,7.639699936E0,-1.749999970E-1
1.488178231E1,2.411000013E0,4.103399754E0,-3.009699821E0
1.490163387E1,2.023499966E0,7.207999825E-1,-3.603299856E0
1.492148544E1,1.311200023E0,-1.265900016E0,-1.437199950E0
1.494134012E1,2.159299850E0,-1.766299963E0,9.907999635E-1
1.496119169E1,3.585599899E0,-2.325599909E0,2.209899902E0
1.498104325E1,3.897499800E0,-2.722499847E0,3.281999826E-1
1.500089637E1,2.721699953E0,-1.727599978E0,-7.074399948E0
1.502075575E1,1.460600019E0,-1.588099957E0,-4.016900063E0
1.504060106E1,-9.318999648E-1,-1.033999920E0,-2.831399918E0
1.506045419E1,-2.150699854E0,-6.743999720E-1,6.358000040E-1
1.508030887E1,-2.634199858E0,-4.514999986E-1,2.577100039E0
1.510016044E1,-2.348700047E0,-1.796000004E-1,1.500399947E0
1.512001200E1,-1.244499922E0,-2.937999964E-1,7.095999718E-1
1.513986512E1,-5.756999850E-1,-5.934999585E-1,-8.989999443E-2
1.515971825E1,-1.631999910E-1,-9.940999746E-1,-6.568999887E-1
1.517957137E1,5.363999605E-1,-1.576900005E0,-2.300899982E0
1.519942294E1,1.184499979E0,-1.592700005E0,-9.422999620E-1
1.521927606E1,1.738999963E0,-2.006399870E0,-1.960999966E-1
1.523912762E1,1.791199923E0,-2.506199837E0,-6.451999545E-1
1.525898075E1,2.862999916E0,-4.625099659E0,-1.598299980E0
1.527883387E1,4.288300037E0,-5.801199913E0,2.377000004E-1
1.529868544E1,3.762199879E0,-5.811699867E0,2.767799854E0
1.531853856E1,1.086499929E0,-5.019499779E0,3.673699856E0
1.533839169E1,-1.556899905E0,-5.676799774E0,4.290699959E0
1.535824481E1,-4.583899975E0,-7.050399780E0,4.491099834E0
1.537809637E1,-6.090199947E0,-7.862699986E0,3.929099798E0
1.539794950E1,-3.870699883E0,-7.712999821E0,2.324399948E0
1.541780262E1,-3.427099943E0,-4.666299820E0,2.606000006E-1
1.543765575E1,-4.763299942E0,-9.164999723E-1,-5.496900082E0
1.545750731E1,3.519999981E-2,1.752599955E0,-4.879999906E-2
1.547736044E1,3.491499901E0,3.168200016E0,2.616299868E0
1.549721356E1,4.929299831E0,3.836299896E0,4.239999950E-1
1.551706981E1,4.977600098E0,3.243799925E0,-5.418999791E-1
1.553691825E1,1.911799908E0,1.735199928E0,-1.995599985E0
1.555677137E1,-1.298099995E0,7.246999741E-1,-1.486400008E0
1.557662450E1,-3.168999910E0,1.632699966E0,1.300999969E-1
1.559647606E1,-3.760299921E0,3.432999849E0,1.532000005E-1
1.561632919E1,-2.830499887E0,5.499099731E0,-6.862999797E-1
1.563618075E1,-8.357999921E-1,6.541100025E0,-1.750899911E0
1.565603387E1,1.373099923E0,6.275899887E0,-4.175899982E0
1.567588700E1,4.958199978E0,3.446199894E0,-6.478999615E0
1.569573856E1,5.764299870E0,-6.468999982E-1,-5.422899723E0
1.571559169E1,3.656899929E0,-4.468499660E0,-2.938499928E0
1.573544481E1,3.125900030E0,-7.451699734E0,-3.242499828E0
1.575529794E1,6.354399681E0,-9.790999413E0,-2.825899839E0
1.577514950E1,4.619299889E0,-1.796800041E1,1.939999908E-1
1.579500262E1,-5.424799919E0,-1.462659931E1,1.016639996E1
1.581485575E1,-6.686199665E0,-3.744099855E0,-2.538499832E0
1.583470731E1,-3.522399902E0,4.103799820E0,4.264999866E0
1.585456044E1,-8.399999700E-3,7.320299625E0,6.100299835E0
1.587441200E1,1.099300027E0,5.970099926E0,3.220700026E0
1.589426512E1,3.190999925E-1,6.754999757E-1,5.259000063E-1
1.591411825E1,-7.129999995E-1,-5.190599918E0,-1.628999949E0
1.593396981E1,5.375999808E-1,-7.845099926E0,-7.384999990E-1
1.595382294E1,2.296200037E0,-6.574399948E0,9.259999543E-2
1.597367606E1,1.986599922E0,-3.215899944E0,7.967000008E-1
1.599352762E1,7.626000047E-1,-3.623999953E-1,8.003000021E-1
1.601338700E1,2.885999978E-1,1.296999931E0,-4.511999786E-1
1.603323387E1,2.395000011E-1,2.863899946E0,-6.393199921E0
1.605308544E1,7.155999541E-1,3.213699818E0,-3.314599991E0
1.607293856E1,7.178999782E-1,2.690500021E0,5.410000086E-1
1.609279794E1,-1.401000023E-1,2.204999924E0,2.185099840E0
1.611264481E1,-5.788999796E-1,1.470999956E0,2.463999987E0
1.613249637E1,-3.594000041E-1,1.245999932E-1,1.128499985E0
1.615234950E1,-2.137999982E-1,-1.883999944E0,-1.177699924E0
1.617220262E1,-9.121999741E-1,-3.131999969E0,-1.051309967E1
1.619205418E1,3.524999917E-1,-4.193500042E0,-2.271299839E0
1.621190731E1,9.387999773E-1,-3.647099972E0,-2.141399860E0
1.623176044E1,3.491999805E-1,-3.158699989E0,-2.362099886E0
1.625161356E1,1.847499967E0,-5.739199638E0,2.569099903E0
1.627146512E1,3.681999922E0,-8.479399681E0,3.544299841E0
1.629131825E1,3.760200024E0,-1.047499943E1,3.467599869E0
1.631117137E1,3.436000049E-1,-8.720399857E0,3.606299877E0
1.633102294E1,-3.838799953E0,-7.465899944E0,3.552699804E0
1.635087606E1,-7.000899792E0,-8.330499649E0,4.216199875E0
1.637072919E1,-6.249799728E0,-8.324299812E0,3.572499990E0
1.639058231E1,-2.888099909E0,-6.046199799E0,-1.889099956E0
1.641043387E1,-2.575999975E0,-2.511999846E0,-5.250599861E0
1.643028700E1,-1.012599945E0,-6.260000169E-2,4.603999853E-1
1.645014012E1,6.423999667E-1,2.195799828E0,4.662399769E0
1.646999168E1,2.168599844E0,3.868099928E0,2.801199913E0
1.648984481E1,3.933899879E0,4.309899807E0,7.838000059E-1
1.650970418E1,3.301199913E0,3.698499918E0,-2.453099966E0
1.652954950E1,1.484799981E0,3.178599834E0,-3.526000023E0
1.654940262E1,-1.254999936E-1,3.721199989E0,-1.996799946E0
1.656925575E1,-1.275399923E0,4.218599796E0,-8.028999567E-1
1.658910887E1,-1.672500014E0,4.524600029E0,-1.877599955E0
1.660896044E1,-1.105000004E-1,4.446099758E0,-5.869999886E0
1.662881356E1,5.889999866E-1,3.803399801E0,-1.429759979E1
1.664866669E1,-1.766099930E0,-2.160799980E0,-1.153179932E1
1.666851825E1,-3.519999981E0,-7.791599751E0,-3.567600012E0
1.668837137E1,-1.009699941E0,-8.801599503E0,-2.114599943E0
1.670822450E1,1.933699965E0,-7.787999630E0,-1.479570007E1
1.672807606E1,5.550699711E0,-1.349230003E1,-1.621000022E-1
1.674792918E1,5.505999923E-1,-5.375999928E0,1.797010040E1
1.676778231E1,-2.024899960E0,2.984999895E0,1.403419971E1
1.678763387E1,-1.870000005E0,8.260899544E0,3.790299892E0
1.680748700E1,-1.980899930E0,5.483399868E0,-1.089599967E0
1.682734012E1,-2.619799852E0,-1.041399956E0,-3.313400030E0
1.684719325E1,-2.612900019E0,-6.765699863E0,-1.962899923E0
1.686704481E1,-8.044999838E-1,-1.038980007E1,-1.233999953E-1
1.688689794E1,3.192600012E0,-1.001840019E1,4.517999887E-1
1.690675106E1,2.866499901E0,-4.817299843E0,5.260999799E-1
1.692660887E1,1.851099968E0,9.075999856E-1,-1.438099980E0
1.694645575E1,2.122999907E0,4.407099724E0,-4.156499863E0
1.696630887E1,9.888999462E-1,3.255800009E0,-2.710299969E0
1.698616044E1,1.350999922E-1,2.403899908E0,-2.349999920E-2
1.700601825E1,-7.285000086E-1,1.132599950E0,1.742699981E0
1.702586668E1,-2.436699867E0,5.149999857E-1,1.381099939E0
1.704571825E1,-2.590299845E0,-1.162999943E-1,3.894999921E-1
1.706557762E1,-1.415300012E0,-5.358999968E-1,3.538999856E-1
1.708542294E1,-3.024999797E-1,-1.234999970E-1,7.121999860E-1
1.710527606E1,7.050000131E-2,7.221999764E-1,1.146700025E0
1.712512919E1,8.100000210E-3,2.088999897E-1,7.881999612E-1
1.714498231E1,3.290999830E-1,-9.335999489E-1,-9.092999697E-1
1.716483387E1,8.759999871E-1,-2.231799841E0,-5.175099850E0
1.718468700E1,8.104000092E-1,-2.225800037E0,-3.225800037E0
1.720453856E1,6.851999760E-1,-1.780299902E0,7.135999799E-1
1.722439325E1,2.351000011E-1,-2.702100039E0,6.833999753E-1
1.724424481E1,1.294000000E-1,-4.204699993E0,-2.344799995E0
1.726409794E1,2.736199856E0,-5.923999786E0,-4.643999934E-1
1.728394950E1,5.219599724E0,-7.563499928E0,2.144500017E0
1.730380262E1,6.153800011E0,-8.048699379E0,4.023999691E0
1.732365575E1,1.592099905E0,-6.499799728E0,5.078899860E0
1.734350731E1,-2.551100016E0,-5.529699802E0,4.712500095E0
1.736336044E1,-4.803899765E0,-5.409599781E0,3.866199970E0
1.738321356E1,-4.054800034E0,-4.759999752E0,1.810999990E0
1.740306669E1,-2.215499878E0,-4.118899822E0,-3.900000080E-2
1.742291825E1,-1.626099944E0,-2.792699814E0,-1.473500013E0
1.744277137E1,-1.030399919E0,-1.392199993E0,-1.861799955E0
1.746262450E1,1.069499969E0,-3.376999795E-1,1.153900027E0
1.748247606E1,2.394399881E0,1.261600018E0,1.358600020E0
1.750233544E1,1.815199971E0,3.066999912E0,1.269000024E-1
1.752218231E1,1.285599947E0,4.041800022E0,4.099999741E-2
1.754203387E1,1.259400010E0,3.386299849E0,-8.429999650E-2
1.756188700E1,-2.236999869E-1,1.886399984E0,-8.691999912E-1
1.758174012E1,-1.732599974E0,1.155900002E0,-1.134999990E0
1.760159325E1,-2.533499956E0,1.914399981E0,-1.858500004E0
1.762145106E1,-2.944399834E0,3.275599957E0,-2.447299957E0
1.764129794E1,-1.778699994E0,5.232299805E0,-4.061699867E0
1.766115106E1,1.141199946E0,4.368499756E0,-5.553899765E0
1.768100262E1,2.123800039E0,9.496999979E-1,-5.551599979E0
1.770085575E1,2.576599836E0,-2.160199881E0,-3.362599850E0
1.772070887E1,2.615900040E0,-3.504899979E0,-1.733599901E0
1.774056044E1,4.372499943E0,-2.907799959E0,-2.462399960E0
1.776041356E1,7.548199654E0,-1.977999926E0,-5.799999833E-1
1.778026668E1,5.222499847E0,-5.275999904E-1,9.843099594E0
1.780011825E1,1.987499952E0,-4.631299973E0,-2.099999972E-2
1.781997137E1,-7.489999533E-1,-1.552740002E1,-6.463299751E0
1.783982450E1,-8.281299591E0,-1.355159950E1,1.229699969E0
1.785967762E1,-8.460899353E0,-3.238999844E0,3.310299873E0
1.787952919E1,-2.783699989E0,2.263200045E0,6.318599701E0
1.789938231E1,1.988399982E0,5.066799641E0,4.523499966E0
1.791923544E1,3.560799837E0,4.194799900E0,1.280300021E0
1.793908700E1,2.226399899E0,-4.077999890E-1,-1.062799931E0
1.795894012E1,7.209999561E-1,-3.853899956E0,-1.532299995E0
1.797879325E1,5.796999931E-1,-3.325899839E0,-9.110999703E-1
1.799865106E1,8.376999497E-1,-4.041000009E-1,-6.749999523E-2
1.801849794E1,1.189100027E0,1.272599936E0,4.596999884E-1
1.803835106E1,-1.426800013E0,1.677899957E0,-5.912899971E0
1.805820418E1,-2.527999878E0,8.441999555E-1,-6.596099854E0
1.807805575E1,-1.733699918E0,9.187999964E-1,-3.842599869E0
1.809790887E1,9.062999487E-1,1.325199962E0,-3.377399921E0
1.811776044E1,4.125299931E0,-1.536599994E0,-1.135399938E0
1.813761356E1,3.997900009E0,-4.300499916E0,-1.520999968E-1
1.815746669E1,3.032599926E0,-6.267799854E0,1.197299957E0
1.817731981E1,-1.516000032E-1,-9.908100128E0,-2.579999901E-2
1.819717294E1,-4.313499928E0,-1.234919930E1,-2.499899864E0
1.821702450E1,-7.221899986E0,-9.530399323E0,-7.957999706E-1
1.823687762E1,-6.673699856E0,-6.085299969E0,3.386099815E0
1.825672918E1,-4.638899803E0,-4.707299709E0,3.377699852E0
1.827658231E1,-1.124499917E0,-1.817399979E0,2.650199890E0
1.829643544E1,2.878999949E0,1.093500018E0,2.538300037E0
1.831629325E1,3.238699913E0,1.970499992E0,-7.178999782E-1
1.833614012E1,2.280799866E0,2.269000053E0,-3.211299896E0
1.835599325E1,8.377999663E-1,2.326499939E0,-1.049199939E0
1.837584481E1,-5.634999871E-1,2.927099943E0,-4.416999817E-1
1.839569794E1,-7.991999984E-1,3.601999998E0,5.295000076E-1
1.841555106E1,-9.696999788E-1,4.587899685E0,1.232499957E0
1.843540262E1,-8.100999594E-1,5.549099922E0,-5.356999636E-1
1.845526200E1,4.548999965E-1,6.314399719E0,-3.788699865E0
1.847510887E1,1.944299936E0,4.579799652E0,-6.651899815E0
1.849496668E1,3.915199995E0,9.175999761E-1,-4.127200127E0
1.851481356E1,4.224599838E0,-1.708499908E0,7.759000063E-1
1.853466668E1,2.933899879E0,-3.187099934E0,1.214100003E0
1.855451981E1,4.041599751E0,-7.331299782E0,7.508899689E0
1.857437137E1,2.332799911E0,-1.634659958E1,-4.445999861E-1
1.859422450E1,-5.372699738E0,-1.319289970E1,1.263029957E1
1.861407762E1,-4.606999874E0,-6.852499962E0,6.872799873E0
1.863392918E1,-1.483799934E0,6.259999871E-1,-5.216000080E-1
1.865378231E1,5.997999907E-1,2.974099874E0,-7.123000026E-1
1.867363544E1,1.444700003E0,3.053099871E0,-2.071099997E0
1.869348856E1,1.264999986E0,1.912499905E0,-1.447600007E0
1.871334012E1,1.297399998E0,8.689999580E-2,2.410999984E-1
1.873319325E1,1.633899927E0,-1.692999899E-1,-1.074000001E0
1.875304637E1,1.060699940E0,1.119699955E0,-2.867399931E0
1.877289794E1,4.560000002E-1,1.633799911E0,-2.280599833E0
1.879275106E1,-2.328999937E-1,5.587999821E-1,-7.805999517E-1
1.881260418E1,-9.617999792E-1,-5.688999891E-1,6.639999747E-1
1.883245575E1,-1.304000020E0,-8.245999813E-1,1.818899989E0
1.885230887E1,-1.623399973E0,-5.909999609E-1,1.763799906E0
1.887216200E1,-9.383999705E-1,-3.531000018E-1,8.968999982E-1
1.889201512E1,-1.600999981E-1,6.456999779E-1,5.225999951E-1
1.891186668E1,-7.409999520E-2,1.504199982E0,5.363999605E-1
1.893171981E1,9.200000018E-2,6.378999949E-1,8.655999899E-1
1.895157294E1,-1.420000009E-2,-1.016600013E0,1.175300002E0
1.897142450E1,1.086999997E-1,-1.723399997E0,-8.069999516E-2
1.899128387E1,5.297999978E-1,-8.705999851E-1,-4.916399956E0
1.901113544E1,1.008299947E0,-1.063599944E0,-5.966399670E0
1.903098231E1,7.666999698E-1,-2.596299887E0,4.298000038E-1
1.905083544E1,-7.922999859E-1,-2.245499849E0,2.080899954E0
1.907068856E1,-2.783900023E0,-1.500299931E0,-2.516899824E0
1.909054168E1,7.382999659E-1,-3.890199900E0,-1.704699993E0
1.911039325E1,3.937599897E0,-5.568899632E0,1.657199979E0
1.913024637E1,6.864599705E0,-7.197599888E0,2.899899960E0
1.915009950E1,7.110899925E0,-6.594399929E0,4.180399895E0
1.916995106E1,2.849900007E0,-4.740200043E0,4.104799747E0
1.918980418E1,-1.663599968E0,-4.457999706E0,3.625299931E0
1.920965731E1,-4.191400051E0,-5.411299706E0,3.160899878E0
1.922950887E1,-4.748600006E0,-5.330399990E0,2.052700043E0
1.924936200E1,-2.749300003E0,-3.978899956E0,-3.774999976E-1
1.926921512E1,-1.034600019E0,-2.761600018E0,-4.908099651E0
1.928906668E1,-6.199999712E-3,-4.087999761E-1,-9.660999775E-1
1.930891981E1,9.944999814E-1,1.678299904E0,1.558099985E0
1.932877294E1,1.078999996E0,3.462199926E0,1.157599926E0
1.934862606E1,1.954899907E0,4.051300049E0,8.787999749E-1
1.936847762E1,1.690799952E0,3.324999809E0,-7.522999644E-1
1.938833075E1,5.227999687E-1,1.811499953E0,-1.226400018E0
1.940818387E1,-9.924999475E-1,8.698999882E-1,-4.654999971E-1
1.942803544E1,-2.083499908E0,9.458999634E-1,-1.854999959E-1
1.944788856E1,-2.242899895E0,1.905900002E0,-8.143000007E-1
1.946774168E1,-1.867899895E0,3.464200020E0,-1.624899983E0
1.948759950E1,-1.114699960E0,4.493499756E0,-2.980999947E0
1.950744637E1,2.621999979E-1,4.500400066E0,-4.262899876E0
1.952729794E1,1.409699917E0,2.714499950E0,-4.810999870E0
1.954715262E1,2.710199833E0,-5.622000098E-1,-2.732699871E0
1.956700419E1,3.842399836E0,-3.495999813E0,-1.474799991E0
1.958685731E1,5.852299690E0,-3.141499996E0,-4.217599869E0
1.960670887E1,7.939199924E0,-1.015799999E0,-5.339999795E-1
1.962656200E1,6.403100014E0,-3.504000008E-1,6.183699608E0
1.964641512E1,5.022099972E0,-1.158990002E1,-1.079579926E1
1.966626668E1,-3.048799992E0,-1.756200027E1,5.876899719E0
1.968612137E1,-1.200189972E1,-9.369199753E0,1.011600018E0
1.970597762E1,-1.022469997E1,1.749300003E0,7.318500042E0
1.972582450E1,-3.079499960E0,6.588299751E0,5.847499847E0
1.974567762E1,7.436000109E-1,6.049099922E0,1.794099927E0
1.976553075E1,8.309999704E-1,5.726999640E-1,1.028100014E0
1.978538231E1,1.207299948E0,-4.241799831E0,-1.318599939E0
1.980523544E1,1.839199901E0,-5.226500034E0,-1.778199911E0
1.982508856E1,2.229399920E0,-3.838999987E0,-7.238000035E-1
1.984494012E1,1.998999953E0,-2.936899900E0,8.731999993E-1
1.986479325E1,1.911299944E0,-2.587599993E0,1.322399974E0
1.988464637E1,3.412799835E0,-9.790999889E-1,-6.197299957E0
1.990449950E1,4.631700039E0,-2.615999877E-1,-7.274999619E0
1.992435106E1,2.944000006E0,9.616999626E-1,-3.117100000E0
1.994420418E1,1.039000005E-1,7.942999601E-1,2.074599981E0
1.996405731E1,-2.088000059E0,-2.730000019E-1,4.722899914E0
1.998391512E1,-3.005599976E0,-2.680999935E-1,4.082600117E0
2.000376200E1,-2.467499971E0,3.391000032E-1,1.753199935E0
2.002361512E1,-1.410899997E0,1.413399935E0,5.302999616E-1
2.004346669E1,-4.429000020E-1,1.899499893E0,1.833999902E-1
2.006331981E1,-3.484999835E-1,7.640999556E-1,2.478999943E-1
2.008317294E1,-8.159999549E-2,-1.224399924E0,2.118999958E-1
2.010302606E1,-7.199999690E-2,-3.860899925E0,-3.447999954E-1
2.012287762E1,-2.823699951E0,-4.129799843E0,-1.777000046E1
2.014273075E1,-9.097999930E-1,-3.082799911E0,-4.343599796E0
2.016258387E1,2.461499929E0,-3.533200026E0,4.296000004E0
2.018243544E1,5.235099792E0,-5.052799702E0,5.890500069E0
2.020228856E1,5.970299721E0,-7.974199772E0,2.767400026E0
2.022214168E1,1.898099899E0,-6.490599632E0,-4.166999757E-1
2.024199481E1,-2.143899918E0,-4.055699825E0,4.557999969E-1
2.026184637E1,-4.384200096E0,-3.112200022E0,2.930699825E0
2.028169950E1,-4.725999832E0,-4.013400078E0,3.722899914E0
2.030155262E1,-3.130800009E0,-4.756799698E0,2.452800035E0
2.032140419E1,-1.882699966E0,-3.714599848E0,8.292999864E-1
2.034125731E1,-2.122099876E0,-2.162400007E0,-1.379799962E0
2.036111044E1,-6.547999978E-1,-7.954999804E-1,-1.849999905E0
2.038096200E1,1.123799920E0,3.808999956E-1,-9.174000025E-1
2.040082137E1,2.241999865E0,8.014000058E-1,3.741999865E-1
2.042066825E1,2.034800053E0,1.278199911E0,9.567999840E-1
2.044051981E1,7.646999955E-1,2.093799829E0,8.902999759E-1
2.046037294E1,1.668999940E-1,2.505399942E0,7.763999701E-1
2.048022606E1,2.345999926E-1,2.043499947E0,-2.621999979E-1
2.050007918E1,5.464000106E-1,1.638799906E0,-1.511999965E0
2.051993075E1,-2.120999992E-1,1.730099916E0,-1.846899986E0
2.053978387E1,-1.860099912E0,3.677599907E0,-1.154299974E0
2.055963700E1,-1.148599982E0,5.338299751E0,-1.027699947E0
2.057948856E1,6.004999876E-1,6.136699677E0,-1.855599999E0
2.059934169E1,2.939800024E0,4.719500065E0,-4.134599686E0
2.061919481E1,3.726099968E0,1.761299968E0,-4.627399921E0
2.063904794E1,2.595299959E0,-6.933999658E-1,-2.440899849E0
2.065889950E1,2.219199896E0,-2.655999899E0,-1.430699944E0
2.067875262E1,3.066399813E0,-6.155900002E0,-3.617599964E0
2.069860575E1,1.627799988E0,-1.408579922E1,-4.625999928E-1
2.071845731E1,-6.276999950E0,-1.397369957E1,1.197259998E1
2.073831044E1,-6.546999931E0,-8.604499817E0,9.529099464E0
2.075816200E1,-1.665599942E0,1.054999977E-1,4.050399780E0
2.077801512E1,9.605000019E-1,4.780399799E0,1.056499958E0
2.079786825E1,1.403699994E0,5.435800076E0,-1.171100020E0
2.081772137E1,1.668999940E-1,2.797199965E0,-1.800499916E0
2.083757294E1,-2.000999898E-1,-8.603999615E-1,-1.978199959E0
2.085742606E1,7.881999612E-1,-2.947299957E0,-1.172299981E0
2.087727762E1,1.957199931E0,-2.204400063E0,1.885999888E-1
2.089713231E1,1.988599896E0,-7.663999796E-1,1.425799966E0
2.091698387E1,1.806299925E0,3.650999963E-1,1.079399943E0
2.093683544E1,9.447000027E-1,6.791999936E-1,-3.901999891E-1
2.095668856E1,-5.909999833E-2,4.497999847E-1,-1.996499896E0
2.097654794E1,-5.453000069E-1,-3.055000007E-1,-9.077599525E0
2.099639481E1,4.802999794E-1,-1.116699934E0,-2.542599916E0
2.101624637E1,4.120999873E-1,-1.734399915E0,1.611599922E0
2.103609950E1,-5.609999895E-1,-1.113399982E0,3.185199976E0
2.105595262E1,-6.396999955E-1,2.832999825E-1,3.847999811E0
2.107580419E1,-5.871999860E-1,6.498999596E-1,2.052299976E0
2.109566356E1,-6.057999730E-1,-2.606000006E-1,6.887999773E-1
2.111551044E1,-6.423000097E-1,-6.136999726E-1,-4.170999825E-1
2.113536200E1,-1.588999927E-1,-4.769999906E-2,-1.364699960E0
2.115521512E1,4.666999876E-1,1.027999967E-1,-2.480799913E0
2.117506825E1,8.863999844E-1,-3.843999803E-1,-4.866300106E0
2.119491981E1,1.023999974E-1,-8.998999596E-1,-1.845199943E0
2.121477450E1,-9.205999970E-1,-9.465999603E-1,1.185599923E0
2.123462762E1,-1.345999956E0,-4.951999784E-1,1.133499980E0
2.125447918E1,2.254999876E0,-4.059700012E0,2.790999889E0
2.127433231E1,4.019099712E0,-8.376099586E0,5.849999785E-1
2.129418544E1,1.949399948E0,-8.683499336E0,-2.618299961E0
2.131403700E1,-1.393299937E0,-5.282099724E0,6.632999778E-1
2.133388856E1,-2.892699957E0,-4.195600033E0,3.251499891E0
2.135374325E1,-2.395900011E0,-4.926799774E0,5.132400036E0
2.137360106E1,-1.448699951E0,-5.882799625E0,4.712199688E0
2.139344794E1,-5.048999786E-1,-5.233299732E0,2.698199987E0
2.141329950E1,1.569999941E-2,-3.418099880E0,-5.807999969E-1
2.143315419E1,-1.110999957E-1,-2.250799894E0,-7.214299679E0
2.145300575E1,-2.929999828E-1,1.445000023E-1,-3.004400015E0
2.147286356E1,6.169999838E-1,3.492899895E0,2.997399807E0
2.149271044E1,5.886999965E-1,4.948999882E0,3.286499977E0
2.151256356E1,8.895999789E-1,4.714200020E0,1.936699986E0
2.153241512E1,6.093999743E-1,2.979399920E0,-1.511699915E0
2.155226825E1,1.374000013E-1,1.138299942E0,-2.302299976E0
2.157212137E1,-8.801999688E-1,1.460399985E0,-1.458299994E0
2.159197450E1,-1.692499995E0,3.157799959E0,-8.134999871E-1
2.161182606E1,-1.278699994E0,4.717400074E0,-5.388999581E-1
2.163167919E1,1.862999946E-1,6.564699650E0,-1.579899907E0
2.165153231E1,2.773000002E0,7.070199966E0,-3.651799917E0
2.167138387E1,5.907799721E0,3.999699831E0,-7.785199642E0
2.169123700E1,3.733999968E0,-3.802299976E0,-8.354299545E0
2.171109012E1,-3.017999828E-1,-1.039279938E1,-8.223500252E0
2.173094168E1,-6.847999692E-1,-1.586699963E1,-1.458559990E1
2.175079481E1,6.457099915E0,-1.568429947E1,5.727399826E0
2.177064794E1,1.367999911E-1,-4.449199677E0,2.151129913E1
2.179050575E1,-3.205099821E0,5.658999920E0,5.882400036E0
2.181035262E1,-2.379999876E0,1.121969986E1,-7.222999930E-1
2.183020575E1,-2.973399878E0,5.942399979E0,-2.849999964E-1
2.185005887E1,-3.078199863E0,-1.569199920E0,-1.704699993E0
2.186991044E1,-2.264499903E0,-6.764199734E0,4.686999917E-1
2.188976356E1,-4.001999795E-1,-9.848599434E0,-4.809999838E-2
2.190961668E1,3.440699816E0,-9.742199898E0,-1.381099939E0
2.192946825E1,2.859899998E0,-4.819799900E0,-1.120299935E0
2.194932137E1,1.533999920E0,-6.143999696E-1,-1.777300000E0
2.196917918E1,1.878699899E0,3.039499998E0,-3.929699898E0
2.198902606E1,1.698699951E0,2.539499998E0,-2.081099987E0
2.200887918E1,1.069399953E0,1.812099934E0,4.084999859E-1
2.202873231E1,1.310000010E-2,1.061299920E0,2.050499916E0
2.204858544E1,-6.926999688E-1,1.169499993E0,2.786900043E0
2.206843856E1,-1.226799965E0,2.041599989E0,1.452700019E0
2.208829012E1,-1.210699916E0,2.256299973E0,4.454999864E-1
2.210814325E1,-1.181999922E0,1.228500009E0,8.199999481E-2
2.212799481E1,-1.919299960E0,-6.226999760E-1,9.499999695E-3
2.214784794E1,-1.446200013E0,-2.021299839E0,1.779999956E-2
2.216770106E1,-1.406899929E0,-2.817199945E0,-5.525099754E0
2.218755262E1,-1.392799973E0,-1.704999924E0,-1.139190006E1
2.220740575E1,-1.082000017E0,-1.518199921E0,-1.619499922E0
2.222725887E1,-2.101999968E-1,-1.719299912E0,2.127599955E0
2.224711044E1,2.064300060E0,-1.639599919E0,4.739999771E-2
2.226696356E1,3.203899860E0,-2.036499977E0,4.233999848E-1
2.228681512E1,4.557300091E0,-4.178599834E0,4.140299797E0
2.230666825E1,5.028399944E0,-7.385299683E0,6.371799946E0
2.232652137E1,2.598199844E0,-1.015139961E1,6.119799614E0
2.234637450E1,-2.018800020E0,-1.184099960E1,5.180200100E0
2.236622606E1,-5.351699829E0,-1.112869930E1,4.240099907E0
2.238607918E1,-4.511600018E0,-7.110399723E0,2.038800001E0
2.240593231E1,-2.989899874E0,-3.554699898E0,-7.949999720E-2
2.242578387E1,-2.888399839E0,-1.242299914E0,-2.197799921E0
2.244563856E1,-1.782699943E0,3.504000008E-1,-1.731099963E0
2.246549637E1,-3.301999867E-1,1.319100022E0,-9.642999768E-1
2.248534325E1,8.272999525E-1,2.588999987E0,1.033800006E0
2.250519637E1,1.946099997E0,3.801599979E0,1.450500011E0
2.252504794E1,3.096599817E0,4.576600075E0,4.078999758E-1
2.254490106E1,2.721699953E0,4.705399990E0,-6.577999592E-1
2.256475262E1,1.898000002E0,3.999799967E0,-1.893999934E0
2.258460575E1,1.255599976E0,4.262099743E0,-3.361500025E0
2.260445887E1,-2.245999873E-1,2.846499920E0,-2.154500008E0
2.262431044E1,-2.608999908E-1,1.604399920E0,-1.624699950E0
2.264416356E1,-5.347999930E-1,6.782999635E-1,-2.067800045E0
2.266401668E1,-9.129999578E-2,2.193000019E-1,-4.288899899E0
2.268386825E1,-2.796299934E0,-3.056599855E0,-1.387169933E1
2.270372137E1,-1.983699918E0,-4.400799751E0,-7.948299885E0
2.272357450E1,-1.608599901E0,-2.972399950E0,-7.044999599E-1
2.274342762E1,1.357000023E-1,-1.179000020E0,4.196899891E0
2.276328544E1,1.321999907E0,-2.558199883E0,5.511899948E0
2.278313231E1,1.162400007E0,-6.230999947E0,3.024699926E0
2.280298544E1,1.059599996E0,-1.025199986E1,5.266999602E-1
2.282283700E1,1.122300029E0,-6.000599861E0,-4.430999756E-1
2.284269012E1,8.560999632E-1,-5.137999654E-1,-1.224999949E-1
2.286254325E1,1.909699917E0,4.586400032E0,7.270000130E-2
2.288239637E1,1.134099960E0,6.963999748E0,5.499999970E-2
2.290224794E1,-1.361899972E0,4.659299850E0,5.042999983E-1
2.292210106E1,-3.282199860E0,6.864999533E-1,5.442000031E-1
2.294195262E1,-3.166499853E0,-3.079499960E0,1.333999932E-1
2.296181200E1,-1.013899922E0,-1.711699963E0,-3.195999861E-1
2.298165887E1,8.836999536E-1,2.145499945E0,1.879999936E-1
2.300151200E1,-5.752999783E-1,1.507699966E0,5.248000026E-1
2.302136512E1,-7.949999571E-1,-7.712999582E-1,3.929999769E-1
2.304121669E1,1.219200015E0,-1.728699923E0,-2.579999864E-1
2.306106981E1,3.276099920E0,-1.170799971E0,-1.472000033E-1
2.308092137E1,4.042799950E0,7.909999788E-2,1.319899917E0
2.310077450E1,2.662899971E0,-9.309999645E-2,1.860499978E0
2.312062762E1,2.936999798E-1,-9.339999557E-1,5.378000140E-1
2.314048075E1,-1.310299993E0,-1.001199961E0,-2.762999833E-1
2.316033231E1,-1.711399913E0,3.989999890E-1,1.083000004E-1
2.318018544E1,-1.405900002E0,6.796000004E-1,-1.656499982E0
2.320003856E1,-3.055999875E-1,6.933000088E-1,-2.271299839E0
2.321989168E1,1.274999976E-1,1.358000040E-1,-1.783299923E0
2.323974325E1,4.357999861E-1,7.889999449E-2,-1.405200005E0
2.325959637E1,-2.190999985E-1,5.037999749E-1,-1.658999920E-1
2.327944794E1,-2.637999952E-1,4.861999750E-1,8.499999642E-1
2.329930106E1,1.614999920E-1,-6.688999534E-1,6.843999624E-1
2.331915419E1,3.919999897E-1,-1.838999987E0,2.523999810E-1
2.333900731E1,4.699999932E-3,-1.449999928E0,-2.818999887E-1
2.335885887E1,-1.697199941E0,-2.100999951E-1,-7.087000012E-1
2.337871200E1,-1.254400015E0,-1.215399981E0,-4.371999800E-1
2.339856512E1,-4.626999795E-1,-1.751699924E0,6.419000030E-1
2.341841668E1,-4.702999890E-1,-1.126299977E0,1.670599937E0
2.343826981E1,-7.896999717E-1,-7.969999909E-1,-4.439999908E-2
2.345812762E1,-6.427999735E-1,-1.490399957E0,-1.230199933E0
2.347797606E1,-8.949999809E-1,-3.000699997E0,-1.222700000E0
2.349782606E1,9.023999572E-1,-2.890199900E0,-1.569499969E0
2.351767919E1,2.742399931E0,-1.921499968E0,4.023999870E-1
2.353753387E1,1.781899929E0,-3.827999830E-1,1.727100015E0
2.355738544E1,6.348999739E-1,8.373000026E-1,1.484499931E0
2.357723856E1,-3.704999983E-1,2.013399839E0,-2.520000041E-1
2.359709012E1,-9.497999549E-1,2.393499851E0,-2.133499861E0
2.361694325E1,-4.294999838E-1,6.011999846E-1,-1.333799958E0
2.363679637E1,-2.342999876E-1,-2.612999976E-1,1.406199932E0
2.365664950E1,-6.128000021E-1,-7.404999733E-1,2.360800028E0
2.367650106E1,-1.133700013E0,-1.322999954E0,1.635699987E0
2.369635262E1,-1.553399920E0,-1.713299990E0,2.311999947E-1
2.371620731E1,-1.189499974E0,-1.368099928E0,-1.096999943E-1
2.373606044E1,-2.272000015E-1,-1.197000027E0,3.893999755E-1
2.375591200E1,7.800000161E-2,8.639999479E-2,-6.709999591E-2
2.377576512E1,-8.327999711E-1,1.085699916E0,-1.104399920E0
2.379561669E1,-5.390999913E-1,2.048399925E0,-1.203999996E0
2.381546981E1,2.400000021E-2,2.400399923E0,-5.256999731E-1
2.383532137E1,3.831000030E-1,1.865000010E0,3.443000019E-1
2.385517606E1,9.180999994E-1,1.147799969E0,7.232999802E-1
2.387502919E1,1.179399967E0,3.376999795E-1,1.535999924E-1
2.389488075E1,1.008399963E0,-8.886999488E-1,-5.633000135E-1
2.391473231E1,4.615999758E-1,-1.309099913E0,-1.169899940E0
2.393458700E1,5.428000093E-1,-1.933899999E0,-1.905299902E0
2.395444325E1,1.069800019E0,-4.799099922E0,-8.660900116E0
2.397429012E1,2.640999854E-1,-4.302799702E0,-6.199299812E0
2.399414325E1,4.142999947E-1,-2.847499847E0,-1.691000015E-1
2.401399637E1,9.231999516E-1,-2.396600008E0,3.222599983E0
2.403384794E1,3.055999875E-1,-1.741199970E0,4.088900089E0
2.405370106E1,1.134999990E-1,-7.491999865E-1,3.223099947E0
2.407355419E1,3.682999909E-1,-2.529999912E-1,1.638099909E0
2.409340731E1,1.413399935E0,-4.109999835E-1,1.099499941E0
2.411325887E1,1.461499929E0,-2.240700006E0,5.090999603E-1
2.413311200E1,-1.251000017E-1,-4.887899876E0,-3.489999846E-2
2.415296512E1,-6.972000003E-1,-3.711799860E0,4.680999815E-1
2.417281668E1,-7.009999454E-2,-2.472399950E0,-2.400000021E-2
2.419266981E1,1.953199983E0,-1.275300026E0,-4.054800034E0
2.421252294E1,1.205899954E0,2.300000004E-2,-4.992999732E-1
2.423237450E1,1.644599915E0,-7.914999723E-1,-5.293999910E-1
2.425222762E1,7.854999900E-1,-3.099999856E-3,-1.755999923E-1
2.427208075E1,3.729999810E-2,5.749999732E-2,-1.808999926E-1
2.429193387E1,1.271399975E0,3.887999952E-1,1.131999969E0
2.431178544E1,2.406599998E0,-3.299999833E-1,3.589200020E0
2.433163856E1,2.585799932E0,-7.026999593E-1,3.817899942E0
2.435149169E1,2.862399817E0,-6.491000056E-1,2.529700041E0
2.437134325E1,2.323999882E0,-1.255999953E-1,1.103799939E0
2.439119637E1,2.135699987E0,4.509999752E-1,6.376999617E-1
2.441104950E1,1.160099983E0,1.289399981E0,1.140999913E0
2.443090106E1,2.707000017E0,9.864999652E-1,8.641999960E-1
2.445076044E1,3.616699934E0,1.560499907E0,1.453400016E0
2.447060731E1,5.812500000E0,1.353299975E0,3.140199900E0
2.449046044E1,7.050299644E0,1.623399973E0,4.717999935E0
2.451031200E1,5.931599617E0,1.130999923E0,6.052000046E0
2.453016512E1,4.430599689E0,6.078000069E-1,7.061499596E0
2.455001825E1,3.698199987E0,-4.872999787E-1,6.889099598E0
2.456986981E1,1.816100001E0,-1.402699947E0,6.154599667E0
2.458972294E1,7.628999949E-1,-2.216799974E0,5.039999962E0
2.460957606E1,7.421000004E-1,-2.511299849E0,4.250799656E0
2.462942762E1,5.665000081E-1,-2.595899820E0,3.352299929E0
2.464928075E1,1.048000008E-1,-2.811899900E0,1.623199940E0
2.466913387E1,-1.395399928E0,-2.461799860E0,-4.941999912E-1
2.468898700E1,-1.949899912E0,-8.556999564E-1,-1.836399913E0
2.470883856E1,-1.931899905E0,1.360799909E0,-2.716099977E0
2.472869168E1,-1.055999994E0,2.561899900E0,-3.042299986E0
2.474854325E1,-4.494999945E-1,3.442499876E0,-2.608599901E0
2.476839637E1,-3.179999888E-1,3.760900021E0,-2.759599924E0
2.478824950E1,-8.277999759E-1,3.089799881E0,-3.662599802E0
2.480810106E1,-1.146499991E0,1.792400002E0,-4.126899719E0
2.482795419E1,-1.737100005E0,1.132799983E0,-3.720399857E0
2.484780731E1,-1.757699966E0,9.595999718E-1,-3.398799896E0
2.486766044E1,-8.402999640E-1,4.255999923E-1,-2.513599873E0
2.488751200E1,-1.337000012E0,-1.650999933E-1,-1.865599990E0
2.490736512E1,-1.767300010E0,-6.791999936E-1,-1.755299926E0
2.492721825E1,-2.043099880E0,-1.018199921E0,-1.635999918E0
2.494707606E1,-6.449999660E-2,-9.982999563E-1,1.996399999E0
2.496692294E1,-1.437000036E-1,-6.863999963E-1,2.280900002E0
2.498677450E1,-1.256699920E0,1.126099944E0,9.323999882E-1
2.500662762E1,-1.588599920E0,2.088599920E0,-1.736999899E-1
2.502648075E1,-1.640100002E0,1.272899985E0,-1.861199975E0
2.504633387E1,-1.121199965E0,4.289000034E-1,-1.963400006E0
2.506618544E1,-4.539999738E-2,-6.706999540E-1,-2.398999929E-1
2.508603856E1,1.046700001E0,-8.725000024E-1,6.394999623E-1
2.510589169E1,1.046999931E0,-1.695999950E-1,3.416000009E-1
2.512574950E1,2.793999910E-1,4.138999879E-1,1.049999967E-1
2.514559637E1,-5.756999850E-1,4.443999827E-1,-1.529999916E-2
2.516544950E1,-8.885999918E-1,-3.570000082E-2,-7.710000128E-2
2.518530106E1,-2.560999990E-1,-5.480000004E-2,-6.939999759E-2
2.520515418E1,7.364000082E-1,4.403999746E-1,-5.800999999E-1
2.522500731E1,2.499500036E0,1.000299931E0,-5.733999610E-1
2.524486044E1,1.915199995E0,9.717999697E-1,-1.199299932E0
2.526471356E1,4.405999780E-1,5.503999591E-1,-6.281999946E-1
2.528456512E1,-6.718999743E-1,2.500999868E-1,1.084399939E0
2.530441825E1,-9.889999628E-1,4.138999879E-1,2.396399975E0
2.532426981E1,-5.256999731E-1,2.092999965E-1,1.238999963E0
2.534412294E1,2.384999990E-1,3.659999743E-2,-2.395999879E-1
2.536397606E1,7.828999758E-1,1.074999943E-1,-4.282999933E-1
2.538382919E1,7.849999666E-1,2.979999781E-1,-5.319999903E-2
2.540368700E1,3.552999794E-1,2.229999900E-1,-6.289999932E-2
2.542353387E1,-4.975999892E-1,3.735999763E-1,6.793000102E-1
2.544338700E1,-6.020999551E-1,4.826999903E-1,9.609999657E-1
2.546323856E1,-2.373999953E-1,4.241999984E-1,2.328999937E-1
2.548309168E1,-1.109999977E-2,4.341999888E-1,-6.686999798E-1
2.550294481E1,6.359999627E-2,5.588999987E-1,-2.246999890E-1
2.552279637E1,3.099999856E-3,2.541999817E-1,1.400000006E-1
2.554264950E1,-2.018999904E-1,-1.481000036E-1,5.399999674E-3
2.556250262E1,-5.599999800E-2,-2.219000012E-1,2.406999916E-1
2.558235419E1,-1.774999946E-1,-1.656000018E-1,2.795999944E-1
2.560220731E1,-3.780999780E-1,-1.010999978E-1,3.459999859E-1
2.562206044E1,-5.013999939E-1,-1.729999930E-1,8.748999834E-1
2.564191356E1,-2.109999955E-1,1.371999979E-1,9.275999665E-1
2.566176512E1,2.635999918E-1,4.115999937E-1,1.368999928E-1
2.568161825E1,5.256999731E-1,6.218999624E-1,-5.730999708E-1
2.570147137E1,2.034999877E-1,4.220999777E-1,-3.867000043E-1
2.572132294E1,4.969999939E-2,3.231000006E-1,2.513000071E-1
2.574117606E1,1.879999973E-2,1.507999897E-1,7.581999898E-1
2.576102918E1,-4.309999943E-2,1.423999965E-1,5.855000019E-1
2.578088075E1,1.469999999E-1,1.969999969E-1,2.928999960E-1
2.580073387E1,3.073000014E-1,2.933000028E-1,1.209999993E-1
2.582058700E1,2.976999879E-1,4.122000039E-1,1.294000000E-1
2.584044012E1,5.302999616E-1,1.542999893E-1,-4.962999821E-1
2.586029168E1,3.735999763E-1,2.335999906E-1,2.703999877E-1
2.588014481E1,1.503999978E-1,2.818000019E-1,6.448000073E-1
2.589999794E1,1.885999888E-1,4.274999797E-1,6.484999657E-1
2.591984950E1,-2.408999950E-1,4.672999978E-1,-8.819999546E-2
