"Time (s)","Linear Acceleration x (m/s^2)","Linear Acceleration y (m/s^2)","Linear Acceleration z (m/s^2)"
1.476488580E-1,1.202435493E-1,4.370832443E-2,2.196340561E-1
1.665460970E-1,1.299102306E-1,-3.103232384E-2,1.532716751E-1
1.854433890E-1,6.914830208E-2,-8.690524101E-2,6.254482269E-2
2.043406810E-1,9.632492065E-2,-9.994506836E-3,3.643131256E-2
2.232379200E-1,1.172516346E-1,1.136255264E-2,1.179580688E-1
2.421352120E-1,9.530329704E-2,-2.235293388E-2,1.910505295E-1
2.610325040E-1,-7.586240768E-3,-7.257318497E-2,2.006015778E-1
2.799297430E-1,3.444647789E-2,-6.702613831E-2,-5.722045898E-4
2.988270350E-1,5.119299889E-2,-7.496261597E-2,-3.812980652E-2
3.177243270E-1,-2.079010010E-4,-3.375792503E-2,-1.926422119E-2
3.366215660E-1,-3.589391708E-2,-2.084732056E-2,-5.862426758E-2
3.555188580E-1,4.718470573E-2,3.534960747E-2,-2.879047394E-2
3.744161500E-1,1.250176430E-1,1.033236980E-1,2.033634186E-1
3.933134410E-1,6.807565689E-2,4.241561890E-2,3.231706619E-1
4.122106810E-1,-8.430290222E-2,-1.469714642E-1,1.472330093E-1
4.311079720E-1,-5.245888233E-2,-1.437358856E-1,1.164588928E-1
4.500052640E-1,4.054689407E-2,2.069854736E-2,1.195325851E-1
4.689025560E-1,1.831822395E-1,7.806611061E-2,-5.768775940E-2
4.877998470E-1,1.869730949E-1,-6.192946434E-2,-2.298173904E-1
5.066970870E-1,2.551206350E-1,4.075503349E-2,-8.445644379E-2
5.255943790E-1,2.473809719E-1,1.454503536E-1,1.803617477E-1
5.444916700E-1,1.730241776E-1,-1.147997379E-1,2.197389603E-1
5.633889620E-1,1.763980389E-1,-1.904017925E-1,-5.855274200E-2
5.822862540E-1,2.612438202E-1,1.950335503E-2,-1.453084946E-1
6.011834930E-1,2.838205099E-1,6.270694733E-2,4.153442383E-2
6.200807850E-1,2.227507830E-1,-1.942815781E-1,-1.758861542E-2
6.389780770E-1,2.458975315E-1,-9.374499321E-2,3.196182251E-1
6.578753680E-1,1.515016556E-1,-3.523921967E-2,1.328763962E-1
6.767726600E-1,-9.649753571E-3,-8.704066277E-2,-1.296043396E-2
6.956699520E-1,-3.124642372E-2,-5.661535263E-2,-8.999252319E-2
7.145672430E-1,1.148731709E-1,2.170014381E-2,-6.891727448E-2
7.334644830E-1,-7.483422756E-2,2.442655563E-1,-1.268148422E-1
7.523617750E-1,-2.863239050E-1,3.583102226E-1,6.188869476E-2
7.712590660E-1,-3.184152842E-1,2.118630409E-1,-2.072238922E-2
7.901563580E-1,-3.940780163E-1,1.621558666E-1,-1.615419388E-1
8.090536500E-1,-2.342787981E-1,5.607128143E-2,-1.178846359E-1
8.279509410E-1,6.245613098E-3,-4.631018639E-2,6.598091125E-2
8.468482330E-1,4.698431492E-2,-1.462674141E-2,1.344966888E-2
8.657455250E-1,-2.151525021E-1,-4.417276382E-2,-1.834211349E-1
8.846428160E-1,-4.579197168E-1,-8.246827126E-2,-4.222049713E-1
9.035401080E-1,-3.660445213E-1,-1.038093567E-1,-3.001489639E-1
9.224374000E-1,-1.275924444E-1,-9.857702255E-2,3.869323730E-1
9.413346910E-1,6.938588619E-2,5.258750916E-2,3.860864639E-1
9.602319310E-1,-2.065687180E-1,-7.088184357E-3,1.785459518E-1
9.791292220E-1,-8.852124214E-2,-2.401332855E-1,3.623685837E-1
9.980265140E-1,2.107681036E-1,-2.065241337E-1,3.350973129E-1
1.016923806E0,4.365910292E-1,1.492595673E-1,-1.175832748E-1
1.035821097E0,2.491281033E-1,2.691748142E-1,-5.160150528E-1
1.054718389E0,8.356881142E-2,1.683743000E-1,-3.623189926E-1
1.073615681E0,5.174779892E-2,1.057507992E-1,-1.956367493E-1
1.092512972E0,-7.446408272E-3,1.222250462E-1,-6.263923645E-2
1.111410264E0,-5.367016792E-2,7.531595230E-2,7.590389252E-2
1.130307556E0,-6.868064404E-2,3.318643570E-2,1.002922058E-1
1.149204847E0,5.543255806E-2,1.404590607E-1,4.661750793E-2
1.168102139E0,1.467795372E-1,1.541848183E-1,4.140567780E-2
1.186999431E0,1.282095909E-1,1.296172142E-1,-1.873493195E-1
1.205896722E0,-1.493732929E-1,8.196306229E-2,-4.240541458E-1
1.224794014E0,-2.754704952E-1,6.546115875E-2,-1.479015350E-1
1.243691306E0,-2.608186007E-1,5.051541328E-2,2.629585266E-1
1.262588597E0,-9.064149857E-2,6.488156319E-2,3.040885925E-2
1.281485889E0,1.648147106E-1,3.343625069E-1,-1.817565441E0
1.300383129E0,1.644575596E-1,1.685273647E-1,5.256881714E-1
1.319280420E0,4.900128841E-1,1.729469299E-1,1.342788696E0
1.338177712E0,4.569907188E-1,2.786827087E-1,1.242068291E0
1.357075004E0,1.696162224E-1,1.574449539E-1,5.950336456E-1
1.556723806E0,4.343342781E-2,-1.105182171E-1,-1.125411987E-1
1.575621046E0,6.875348091E-2,-8.500456810E-2,7.430648804E-2
1.594518338E0,3.161215782E-2,-1.025331020E-1,1.954898834E-1
1.613415577E0,-1.197166443E-1,-1.913595200E-1,2.471456528E-1
1.632312869E0,-5.046343803E-2,-1.781132221E-1,1.776046753E-1
1.651210109E0,-1.290106773E-2,-1.012403965E-1,2.251577377E-1
1.670107400E0,-2.448558807E-4,-8.906221390E-2,3.311157227E-1
1.689004640E0,1.071290970E-1,-5.346536636E-2,2.072000504E-1
1.707901931E0,7.894992828E-2,-6.831169128E-2,-7.293224335E-2
1.726799223E0,2.705335617E-3,-5.764126778E-2,-1.904478073E-1
1.745696463E0,-4.711890221E-2,-3.367638588E-2,-1.606216431E-1
1.764593754E0,-5.645585060E-2,-2.017688751E-2,-1.297092438E-1
1.783490994E0,-4.107809067E-2,3.889560699E-3,-2.419242859E-1
1.802388286E0,-2.259731293E-2,4.990816116E-3,-4.326219559E-1
1.821285577E0,-4.886794090E-2,-1.107645035E-2,-3.370952606E-1
1.840182817E0,4.396820068E-2,-3.816914558E-2,4.584789276E-2
1.859080109E0,3.855657578E-2,-9.624791145E-2,3.728599548E-1
1.877977400E0,1.276395321E-1,-1.932430267E-2,-1.400593281E0
1.896874640E0,3.394434452E-1,-6.461930275E-2,1.637627602E0
1.915771931E0,1.057933331E0,3.341169357E-1,2.071107864E0
1.934669171E0,6.218061447E-1,2.411599159E-1,4.177951813E-1
2.108679336E0,2.613358974E0,-1.348638535E-1,-3.013933182E0
2.127576523E0,2.488660812E0,-1.102139950E0,9.062957764E-1
2.146473711E0,1.484034300E0,-1.555346727E0,5.014725685E0
2.165370950E0,4.494051933E-1,-1.393250227E0,3.136050224E0
2.184268138E0,-3.513169289E-2,-4.716565609E-1,-1.334036827E0
2.203165325E0,-6.170034409E-1,1.443901062E-1,-3.872498035E0
2.222062565E0,-1.024553537E0,1.931705475E-1,-4.579260349E0
2.240959752E0,-6.935675144E-1,-2.491734028E-1,-2.444061756E0
2.259856992E0,-8.437769413E-1,-7.890958786E-1,7.371692657E-1
2.278754179E0,-9.306073189E-1,-8.740200996E-1,2.475029945E0
2.297651419E0,1.601617336E-1,-6.640596390E-1,2.394058228E0
2.316548606E0,1.629707575E0,-3.493828773E-1,1.726075172E0
2.335445846E0,-3.166203499E-1,-1.152784824E0,-1.138097763E0
2.354343034E0,-2.591129303E0,-2.418376923E0,-4.229512215E0
2.373240273E0,-2.668975830E0,-2.501263380E0,-3.115148544E0
2.392137461E0,-1.725828171E0,-1.960538387E0,-1.142677784E0
2.411034700E0,-1.235942841E0,-1.875156045E0,2.693939209E-2
2.429931888E0,-1.382480383E0,-1.422693014E0,-1.681282043E0
2.448829127E0,-2.228753805E0,-1.409487486E0,-4.202439308E0
2.467726315E0,-2.638056278E0,-1.999253988E0,-4.697626114E0
2.486623554E0,-2.316665173E0,-3.150652170E0,-3.861569405E0
2.505520742E0,-2.188165665E0,-3.895137310E0,-4.018470764E0
2.524417981E0,-2.216742039E0,-4.182861328E0,-2.403654575E0
2.543315169E0,-2.807791710E0,-5.304224014E0,-1.933951378E-1
2.562212409E0,-3.576467991E0,-5.762065411E0,-1.428748608E0
2.581109648E0,-2.940909386E0,-5.167672157E0,-3.052212000E0
2.600006836E0,-8.376026154E-2,-4.291685104E0,-1.891584396E0
2.618904075E0,2.563879490E0,-2.856204987E0,4.796020031E0
2.637801263E0,1.683404922E0,-1.850715041E0,9.645032883E0
2.656698502E0,-1.271275997E0,-1.144994378E0,8.943153381E0
2.675595742E0,-4.210658073E0,-7.249816656E-1,3.843320847E0
2.694492929E0,-4.774162292E0,-9.554325342E-1,1.024879217E0
2.713390169E0,-1.491354465E0,-9.744477272E-2,5.929495811E0
2.732287409E0,1.152273178E0,1.178318501E0,1.474968147E1
2.751184596E0,1.137120247E0,1.617797494E0,1.716247368E1
2.770081836E0,1.177489758E0,2.469500542E0,1.184697723E1
2.788979075E0,2.365371704E0,3.171432734E0,6.087821007E0
2.807876263E0,6.796178341E0,5.382885456E0,4.713903427E0
2.826773502E0,8.607860565E0,6.771347523E0,5.405534267E0
2.845670690E0,8.055902481E0,5.445472240E0,5.404694557E0
2.864567929E0,7.827276707E0,5.395889282E0,2.488635540E0
2.883465169E0,6.042902946E0,4.618806839E0,-2.386806011E0
2.902362356E0,6.525887489E0,4.123676300E0,-4.010403156E0
2.921259596E0,1.489866829E1,7.578173637E0,-1.130975437E1
2.940156627E0,1.547099686E1,1.062224197E1,-2.327448845E1
2.959054023E0,5.897364140E0,1.112581730E0,7.548928261E-2
2.977951263E0,9.264814377E0,2.936488390E0,7.586133480E0
2.996848502E0,5.299742699E0,3.921341419E0,-1.723064423E0
3.015745690E0,2.007709503E0,2.545517445E0,-2.308108330E0
3.034642929E0,1.199396133E0,2.596508026E0,9.590523243E-1
3.053540169E0,2.065872192E0,3.341772556E0,4.139164925E0
3.072437356E0,1.551044464E0,2.788545609E0,-3.187242746E-1
3.091334596E0,-3.826617241E0,-1.387517452E0,-1.129568577E0
3.110231836E0,-9.252046585E0,-4.169149876E0,3.194129467E-1
3.129129023E0,-4.579225063E0,-1.584286690E0,1.009292245E0
3.148026263E0,1.299447060E0,6.290054321E-1,-1.752296090E0
3.166923502E0,1.011602402E0,9.994995594E-1,-5.188730240E0
3.185820690E0,1.926821709E0,1.094366312E0,-2.797326565E0
3.204717929E0,2.727509499E0,1.353605747E0,-2.575649261E0
3.223615169E0,2.373640060E0,1.454060793E0,1.917247415E0
3.242512200E0,-1.786403656E0,-5.322775841E-1,6.791038513E0
3.261409596E0,-3.105154037E0,2.753519535E0,1.992660880E0
3.280306836E0,-2.008979797E0,4.468592167E0,2.740776539E0
3.299204023E0,-5.578893661E0,-8.255696297E-2,2.059912443E0
3.318101263E0,-4.334186077E0,-3.776489258E0,1.188879251E0
3.336998502E0,-4.487045765E0,-2.793191910E0,4.007957578E-1
3.355895690E0,-5.376319408E0,-2.123568058E0,-1.352902293E0
3.374792929E0,-4.200146198E0,-9.398112297E-1,-8.665212393E-1
3.393690169E0,2.558727264E-1,1.903410196E0,2.900286913E-1
3.412587356E0,3.335503578E0,-8.507490158E-2,-1.566778421E0
3.431484596E0,-5.339012146E-1,-3.030295372E-1,-9.092242241E0
3.450381836E0,-2.530123234E0,1.559174538E0,-7.315717697E0
3.469279023E0,2.059889793E0,-2.219018936E0,1.225978136E0
3.488176263E0,6.695911884E0,-6.161925316E0,-1.039975643E1
3.507073450E0,1.310483932E1,-5.676381111E0,1.335594940E1
3.525970690E0,1.544275284E-1,-3.261047363E0,5.938656807E0
3.544867929E0,-9.025752068E0,-2.723883152E0,-2.423988342E0
3.563765117E0,-5.677269936E0,-1.002760410E0,8.328556061E0
3.582662356E0,-2.904425859E0,3.166133404E0,2.955086470E0
3.601559596E0,-1.689075708E0,5.320025444E0,3.288111687E0
3.620456784E0,-4.694529533E0,1.678530216E0,9.979345798E-1
3.639354023E0,-2.635358095E0,1.372039795E0,5.523439884E0
3.658251263E0,1.397507429E0,-1.240709305E0,1.440662098E1
3.677148450E0,8.339533806E0,-4.477090836E0,1.410696149E0
3.696045690E0,1.055106544E1,-5.570652962E0,8.609892845E0
3.714942929E0,5.605222702E0,-9.037550926E0,3.258571386E0
3.733840117E0,-4.041430950E0,-7.465188026E0,-5.391011238E0
3.752737356E0,-3.196614265E0,-3.521036148E0,-1.469388580E1
3.771634596E0,-2.377834320E0,3.763425350E0,-9.786774635E0
3.790531784E0,8.950803280E-1,6.333987713E0,-2.241642714E0
3.809429023E0,3.718967438E0,2.045245171E0,-2.936768532E0
3.828326211E0,2.445158958E-1,1.854143143E-1,-2.483161211E0
3.847223450E0,-2.797287464E0,-2.644074440E0,-1.416169882E0
3.866120690E0,-1.973525047E0,-1.384070396E0,-2.986531734E0
3.885017877E0,1.645204067E0,1.170258999E0,-3.155979156E0
3.903915117E0,3.283165693E0,-1.184520721E-1,-2.449994802E0
3.922812356E0,3.751869917E0,1.948099136E-1,-4.749806404E0
3.941709544E0,2.856674194E0,-5.765008926E-1,-6.884682655E0
3.960606784E0,2.453450203E0,-7.039871216E-1,-7.804764748E0
3.979504023E0,1.442110538E0,4.738373756E-1,-4.678022861E0
3.998401211E0,2.318338871E0,9.963521957E-1,-4.334005356E0
4.017298450E0,6.685052872E0,1.459821224E0,-5.754295349E0
4.036195690E0,5.448045254E0,-1.500506401E-1,-9.830673933E-1
4.055092877E0,1.181214809E0,-2.108706474E0,8.532065749E-1
4.073990117E0,-1.483900070E0,-4.027270317E0,-7.028651834E-1
4.092887304E0,-2.851472855E0,-7.836958408E0,-3.639649153E0
4.111784544E0,-1.795073986E0,-1.276123238E1,-1.869459748E0
4.130681784E0,5.655446053E-1,-1.538176727E1,4.700669050E-1
4.149578971E0,2.479222298E0,-1.226262093E1,8.009616137E-1
4.168476211E0,2.660206795E0,-6.825807095E0,4.237005711E-1
4.187373450E0,1.198881626E0,-4.068430901E0,1.864248991E0
4.206270638E0,-5.288872719E-1,-3.052407742E0,4.821485519E0
4.225167877E0,-4.671888351E-1,-1.437015533E0,6.900585175E0
4.244065117E0,8.924756050E-1,7.956833839E-1,7.960821629E0
4.262962304E0,2.654554844E0,2.598008394E0,8.428333282E0
4.281859544E0,1.770830631E0,3.955600500E0,1.002469254E1
4.300756784E0,-1.260509491E0,5.302443981E0,9.503815651E0
4.319653971E0,-4.956798553E0,5.976287365E0,9.926403046E0
4.338551211E0,-7.032391548E0,6.614933491E0,9.637409210E0
4.357448398E0,-7.861434937E0,7.167398453E0,8.174645424E0
4.376345638E0,-7.355784416E0,7.415185928E0,5.201863289E0
4.395242877E0,-6.799739838E0,6.173637390E0,2.031749249E0
4.414140065E0,-1.871682644E0,3.287557125E0,-8.182016373E0
4.433037304E0,1.018577099E0,-5.436117649E0,-1.640859604E1
4.451934492E0,-4.153857231E-1,-1.808359909E1,-1.621914291E1
4.470831731E0,7.242732048E0,-2.158746338E1,-1.778010941E1
4.489728971E0,1.352252102E1,-2.541110229E1,-8.871897697E0
4.508626159E0,-4.374694824E-2,-1.045307636E0,2.533887863E1
4.527523398E0,-9.777777672E0,1.061497211E1,2.170373726E1
4.546420586E0,-1.279612350E1,1.097670364E1,6.674153328E0
4.565317825E0,-7.930302620E0,6.788778782E0,6.839125633E0
4.584215065E0,-5.665011883E0,5.389018059E-1,1.044445133E1
4.603112252E0,2.188829422E0,-5.262691021E0,1.227902794E1
4.622009492E0,2.767473793E1,-1.504302406E1,1.106758785E1
4.640906731E0,8.451471329E0,-1.084767532E1,6.825979233E0
4.659803919E0,-2.094111443E-1,-3.712120056E0,4.671794891E0
4.678701159E0,6.022138596E-1,3.101760864E0,-4.081190109E0
4.697598346E0,5.407156944E-1,4.066335678E0,-1.712046432E1
4.716495586E0,5.507183075E-1,1.350387573E0,-1.039920521E1
4.735392825E0,2.197363377E0,1.706935883E0,-4.598220825E0
4.754290013E0,-1.100690365E0,2.158383846E0,-1.381028891E0
4.773187252E0,-1.992654800E0,2.021431923E0,1.754212379E-2
4.792084440E0,-1.159878254E0,2.863470554E0,-1.177653074E-1
4.810981679E0,-2.066431046E-1,3.576871395E0,-1.127527952E0
4.829878867E0,1.408761501E0,3.688762188E0,-1.796194792E0
4.848776106E0,3.676848412E0,3.483620644E0,-2.454490185E0
4.867673138E0,6.748488426E0,2.982516766E0,-6.216335297E0
4.886570534E0,5.280834675E0,3.756461143E0,-1.234371662E1
4.905467773E0,1.041220665E0,-8.218383789E-2,-7.423477173E0
4.924364961E0,-4.347558022E-1,-1.370796204E0,-1.168881655E0
4.943262200E0,-1.518024921E0,-6.647434235E-1,-5.429975986E-1
4.962159388E0,1.472971439E0,1.125701904E0,-3.971382141E0
4.981056627E0,8.538624763E0,7.598257065E-1,-4.334226608E0
4.999953867E0,1.110447979E1,-1.992732048E0,-1.451149583E0
5.018851054E0,4.298335552E0,-4.900258064E0,-6.381870508E-1
5.037748294E0,-6.417798996E-2,-7.742508888E0,-2.248650551E0
5.056645481E0,1.529765606E0,-8.287565231E0,-3.146557808E-1
5.075542721E0,4.280196190E0,-9.346538544E0,1.779663801E0
5.094439909E0,6.072854996E0,-8.620559692E0,2.672800064E0
5.113337148E0,4.947998524E0,-4.198036671E0,2.077315807E0
5.132234336E0,1.008286476E0,-1.404152870E0,5.240955353E0
5.151131575E0,-4.880380630E-2,8.844447136E-1,7.202847481E0
5.170028763E0,1.841139317E0,2.595180035E0,8.088268280E0
5.188926002E0,4.992928505E0,4.368263721E0,7.984518051E0
5.207823242E0,5.068757057E0,4.026325226E0,8.080647469E0
5.226720429E0,8.766880035E-1,2.569751740E0,8.872371674E0
5.245617669E0,-3.381420851E0,1.646710396E0,1.107468033E1
5.264514856E0,-6.638008118E0,7.853055000E-1,1.102345848E1
5.283412096E0,-9.835709572E0,4.330945015E-1,9.007659912E0
5.302309284E0,-1.112210464E1,1.024876118E0,6.601366043E0
5.321206523E0,-9.839408875E0,1.422223568E0,2.829993248E0
5.340103711E0,-6.457957268E0,1.772657871E0,8.549108505E-1
5.359000898E0,-3.769351006E0,1.741028309E0,2.573938370E-1
5.377898138E0,-1.735453844E0,-6.015219688E-1,-3.418807507E0
5.396795325E0,1.662440777E0,-4.248297215E0,-1.384299660E1
5.415692565E0,6.076696873E0,-4.425683975E0,-1.216715050E1
5.434589752E0,9.471652031E0,-1.220793247E0,-1.307937336E1
5.453486992E0,1.391284752E1,-8.904947281E0,-1.005674458E1
5.472384179E0,1.258363724E1,-1.247436714E1,8.115318298E0
5.491281419E0,-5.272191048E0,-1.066461563E0,1.619417953E1
5.510178606E0,-1.012604523E1,4.008688927E0,9.707984924E0
5.529075846E0,-1.228352737E1,3.958118916E0,2.564725876E0
5.547973034E0,-1.130699444E1,-6.714901924E-1,7.721928596E0
5.566870273E0,-7.970865250E0,-4.347880363E0,9.213615417E0
5.585767461E0,-1.753882408E0,-5.845530510E0,8.396974564E0
5.604664700E0,9.800725937E0,-6.952808380E0,3.266401529E0
5.623561888E0,1.481414986E1,-4.953142166E0,2.650507450E0
5.642459127E0,2.286928654E0,-4.323501587E-1,7.640500069E0
5.661356315E0,-6.440591812E-2,3.449436665E0,9.804706573E0
5.680253554E0,8.414320946E-1,5.318166733E0,-2.483632088E0
5.699150742E0,7.382896423E0,5.864581108E0,-1.613039017E1
5.718047981E0,4.375455379E0,3.748891830E0,-1.198899746E1
5.736945169E0,-9.957528114E-1,7.253293991E-1,-5.628954887E0
5.755842409E0,-1.606253147E0,-1.048051834E0,-3.749208450E0
5.774739596E0,-2.269716263E-1,1.096204758E0,-4.294901848E0
5.793636836E0,1.661377907E0,2.980608463E0,-1.872284412E0
5.812534023E0,2.917653561E0,3.343094349E0,1.532723069E0
5.831431263E0,3.400335789E0,3.467268467E0,2.846167326E0
5.850328450E0,4.107887745E0,2.582075596E0,-2.907084465E0
5.869225638E0,3.661123753E0,9.921216965E-1,-7.289192200E0
5.888122877E0,6.239012718E0,7.562108040E-1,-3.996054649E0
5.907020065E0,8.807729721E0,8.605270386E-1,-2.493768454E0
5.925917304E0,9.252437592E0,6.101555824E-1,-6.658349037E-1
5.944814492E0,5.134843826E0,-2.230730534E0,-2.030360222E0
5.963711731E0,1.513176918E0,-6.099015236E0,-8.510338783E0
5.982608919E0,-9.998736382E-1,-8.685982704E0,-6.669456482E0
6.001506159E0,-6.557812691E-1,-8.420801163E0,1.514264345E0
6.020403346E0,1.343633652E0,-8.711841583E0,3.864974022E0
6.039300586E0,1.867868900E0,-1.025450230E1,6.005697250E-1
6.058197773E0,2.393424988E0,-8.640799522E0,-1.222140789E0
6.077095013E0,6.730451584E-1,-4.069798470E0,1.679336786E0
6.095992200E0,-1.296003819E0,-1.397195816E0,3.768968582E0
6.114889388E0,-2.255577564E0,-2.342367172E-2,6.162766457E0
6.133786627E0,-2.045600414E0,1.443777084E0,9.540744781E0
6.152683815E0,-2.104420662E-1,3.329135418E0,1.099507332E1
6.171581054E0,1.684994221E0,4.694334030E0,1.008879852E1
6.190478242E0,-1.250925064E-1,5.086952686E0,9.537410736E0
6.209375481E0,-4.248435497E0,5.315282822E0,9.617820740E0
6.228272669E0,-7.395976067E0,4.382216454E0,8.342033386E0
6.247169856E0,-8.426878929E0,4.019043922E0,6.656332016E0
6.266067096E0,-8.306056023E0,4.455341339E0,5.245106697E0
6.284964284E0,-8.024477005E0,3.436984539E0,5.536575317E0
6.303861523E0,-4.317591667E0,1.455556870E0,-1.181995153E0
6.322758711E0,3.104994774E0,-3.572154999E0,-1.934081459E1
6.341655950E0,2.590368748E0,-1.287915993E1,-1.476633644E1
6.360553138E0,4.429319859E0,-9.492742538E0,-1.004887009E1
6.379450377E0,3.154244423E0,9.978985786E-1,-4.081021309E0
6.398347565E0,8.648252487E0,-5.190657616E0,-9.185502052E0
6.417244752E0,9.551767349E0,-2.407771873E1,-6.418271065E-1
6.436141992E0,-1.672213078E0,-9.956346512E0,1.280198097E1
6.455039179E0,-8.804086685E0,1.107508659E0,1.230188560E1
6.473936419E0,-1.057102203E1,4.509192944E0,9.656455994E0
6.492833606E0,-1.119049644E1,2.812032223E0,7.669548988E0
6.511730846E0,-9.503980637E0,-1.413666725E0,8.539686203E0
6.530628034E0,-5.622692585E0,-2.851561546E0,8.652928352E0
6.549525221E0,3.147096634E-1,-4.467350960E0,6.580554008E0
6.568422461E0,1.261527443E1,-5.959908485E0,1.102832437E0
6.587319648E0,8.589380264E0,-2.896248817E0,3.863359451E0
6.606216888E0,6.257057190E-2,6.013984680E-1,7.677963734E0
6.625114075E0,-1.534588337E0,3.371768951E0,9.364489555E0
6.644011263E0,2.123151779E0,3.787518024E0,-2.480435848E0
6.662908502E0,8.839330673E0,4.580996513E0,-1.619351006E1
6.681805690E0,4.114957809E0,2.964111328E0,-1.425990486E1
6.700702929E0,-1.424904823E0,-1.370920658E0,-6.353344440E0
6.719600117E0,4.783987999E-1,6.094126701E-1,-5.463712692E0
6.738497304E0,1.288218975E0,1.351473331E0,-2.663619995E0
6.757394544E0,1.602285862E0,1.165573597E0,-1.153893471E0
6.776291731E0,2.090423584E0,1.940991402E0,-1.319585800E0
6.795188971E0,1.699507236E0,2.979509354E0,-2.319267035E0
6.814086159E0,3.107364178E0,2.147535324E0,-4.996670723E0
6.832983346E0,4.469691277E0,2.403656960E0,-3.472566128E0
6.851880586E0,4.332788944E0,2.704335690E0,-1.893711448E0
6.870777773E0,3.159810543E0,1.997062206E0,-3.326934099E0
6.889674961E0,4.491623878E0,9.795632362E-1,-7.035422325E0
6.908572200E0,6.734510899E0,-1.289865971E0,-4.239352226E0
6.927469388E0,3.261579037E0,-5.770192146E0,-4.722889423E0
6.946366575E0,-5.277466774E-1,-1.002741241E1,-4.952862740E0
6.965263815E0,-2.501403809E0,-1.126676750E1,1.362757087E0
6.984161002E0,-1.556701183E0,-1.220235443E1,2.525739670E0
7.003058190E0,-1.371031761E0,-1.363788414E1,-1.238294840E0
7.021955429E0,1.158223152E-1,-1.086342621E1,-2.852138519E0
7.040852617E0,3.845887184E-1,-5.117400169E0,-6.567287445E-2
7.059749804E0,1.250303745E0,-2.252139091E0,3.339006186E0
7.078647044E0,-1.510887623E0,-1.563240528E0,7.599769592E0
7.097544231E0,-4.026105881E0,3.143248558E-1,9.445665359E0
7.116441419E0,-3.245054007E0,2.293576717E0,7.762039185E0
7.135338659E0,4.742097855E-1,3.673303843E0,4.291522980E0
7.154235846E0,1.838265419E0,3.930103302E0,6.576064110E0
7.173133034E0,5.262904167E-1,4.690041065E0,9.968146324E0
7.192030273E0,-2.406563997E0,4.586059570E0,1.128732586E1
7.210927461E0,-5.466672421E0,4.114375114E0,1.001158237E1
7.229824648E0,-7.131208897E0,4.391534805E0,7.269008636E0
7.248721888E0,-8.006643295E0,5.169120312E0,2.563445568E0
7.267619075E0,-7.853109360E0,4.896095753E0,-4.327392578E-2
7.286516263E0,-2.527316332E0,2.700454712E0,-7.285125732E0
7.305413502E0,-8.990035057E-1,-9.535343170E0,-1.402478790E1
7.324310690E0,1.303089142E0,-1.534138584E1,-1.138732719E1
7.343207877E0,3.286139488E0,-5.746321678E0,-8.324570656E0
7.362105117E0,2.075431824E0,1.552312851E0,-4.740122795E0
7.381002304E0,6.603719711E0,-5.518363476E0,-7.119144917E0
7.399899492E0,8.676250458E0,-2.099604225E1,-7.114040375E0
7.418796679E0,6.102813244E0,-1.007516289E1,2.701586008E0
7.437693919E0,-7.621316910E0,2.700335026E0,1.480137444E1
7.456591106E0,-1.019019699E1,7.611592770E0,1.134342766E1
7.475488294E0,-1.009902191E1,8.363492012E0,8.977546692E0
7.494385534E0,-7.276919365E0,4.208133221E0,8.140638351E0
7.513282721E0,-6.258292675E0,2.509016991E-1,8.056690216E0
7.532179909E0,8.068656921E-1,-3.642467499E0,8.480575562E0
7.551077148E0,2.035129929E1,-7.621492386E0,4.205864429E0
7.569974336E0,8.096609116E0,-5.310486794E0,8.739341736E0
7.588871523E0,-9.216732979E-1,-3.441791534E-1,7.996051788E0
7.607768763E0,-3.212963343E0,2.874239445E0,8.677009583E0
7.626665950E0,9.721140862E-1,3.907368183E0,-1.154691029E1
7.645563138E0,6.985091209E0,2.689783096E0,-2.080203247E1
7.664460377E0,4.168049812E0,1.824146748E0,-8.441344261E0
7.683357565E0,-1.034250736E0,1.107263565E-1,1.835739255E0
7.702254752E0,-3.024196625E-1,-2.760887146E-1,1.108875751E0
7.721151992E0,7.333750725E-1,3.226161003E-1,-2.997986078E0
7.740049179E0,1.455671787E0,5.845026970E-1,-6.097838879E0
7.758946367E0,2.277904987E0,8.025636673E-1,-4.890901566E0
7.777843606E0,2.494033337E0,1.291107178E0,-2.328196287E0
7.796740794E0,3.020476818E0,2.643262863E0,-1.817843080E0
7.815637981E0,3.161660194E0,2.064629555E0,-1.399554729E0
7.834535221E0,3.546029091E0,1.447058201E0,-2.093189001E0
7.853432409E0,4.221182346E0,2.933180809E0,-2.497344255E0
7.872329596E0,5.101200581E0,3.214871407E0,-1.935872078E0
7.891226836E0,8.096426964E0,1.507038593E0,-2.843278170E0
7.910124023E0,9.362987518E0,-1.103205681E-1,-1.039021492E0
7.929021211E0,7.183001518E0,-2.408191204E0,5.228104591E-1
7.947918398E0,7.431068420E-1,-4.531040192E0,-4.006508350E0
7.966815638E0,-3.764268398E0,-7.180882931E0,-1.140513611E1
7.985712825E0,-2.824816227E0,-7.818672180E0,-2.594164371E0
8.004610065E0,1.431103230E0,-7.462532520E0,2.878593683E0
8.023507252E0,2.741793156E0,-8.370670319E0,3.806997538E0
8.042404440E0,1.719910145E0,-8.312150955E0,1.857710838E0
8.061301627E0,1.931345940E0,-4.899735451E0,2.936258316E-1
8.080198867E0,1.222351074E0,-2.298227310E0,3.371909142E0
8.099096054E0,-5.228834152E-1,-4.886469841E-1,6.644226074E0
8.117993242E0,-1.151375294E0,1.923924923E0,8.156642914E0
8.136890481E0,6.158452034E-1,3.701518059E0,7.877687454E0
8.155787669E0,2.789755344E0,4.772265434E0,7.953001976E0
8.174684856E0,2.511430740E0,4.623665333E0,9.687664032E0
8.193582044E0,-6.033792496E-1,3.736215830E0,1.009557724E1
8.212479284E0,-4.426500797E0,2.690833807E0,9.463971138E0
8.231376471E0,-6.230327129E0,2.252678394E0,9.079238892E0
8.250273659E0,-7.148391724E0,2.620373726E0,7.820098400E0
8.269170846E0,-7.797290802E0,2.910490036E0,4.197283268E0
8.288068086E0,-6.961394310E0,3.174524307E0,1.374557734E0
8.306965273E0,-2.550413132E0,2.732176304E0,-1.343836546E0
8.325862461E0,2.875163078E0,-2.109376907E0,-1.197123528E1
8.344759700E0,3.673372269E0,-1.216816902E1,-1.825973129E1
8.363656888E0,7.674165249E0,-9.705588341E0,-1.266488552E1
8.382554075E0,5.441750526E0,1.852050781E0,-3.484678268E0
8.401451263E0,5.571075439E0,4.552719116E0,-1.087762356E0
8.420348450E0,7.118255138E0,-8.625505447E0,-6.054306507E0
8.439245690E0,6.846543312E0,-1.431575012E1,1.330006123E0
8.458142877E0,-4.007362366E0,-3.523034096E0,1.178583908E1
8.477040065E0,-9.338008881E0,2.454412460E0,9.766842842E0
8.495937252E0,-1.060870552E1,4.784587860E0,4.306933403E0
8.514834492E0,-8.198724747E0,4.421893120E0,5.991631031E0
8.533731679E0,-6.724803925E0,1.578507423E0,8.441017151E0
8.552628867E0,-4.288664341E0,-1.052700043E0,9.548429489E0
8.571526106E0,6.717612267E0,-4.566985130E0,6.994730949E0
8.590423294E0,1.924245644E1,-6.713887215E0,4.368334293E0
8.609320481E0,3.311678886E0,-2.287785530E0,6.766524315E0
8.628217669E0,-1.609344006E0,1.576706886E0,9.289640427E0
8.647114909E0,-1.084209442E0,4.174067497E0,-7.874888182E-2
8.666012096E0,4.466449261E0,4.707968712E0,-1.877231407E1
8.684909284E0,4.084122181E0,2.903787136E0,-1.292600346E1
8.703806471E0,-4.856472015E-1,1.558182716E0,-4.432241440E0
8.722703659E0,-3.231672287E0,-9.298791885E-1,9.546343088E-1
8.741600898E0,-2.359382391E0,-1.649536133E0,-9.830068350E-1
8.760498086E0,-5.733795166E-1,-2.734184265E-1,-5.898350716E0
8.779395273E0,2.509093761E0,7.808499336E-1,-6.667871952E0
8.798292461E0,4.717703342E0,2.104181767E0,-1.892870784E0
8.817189700E0,4.702726364E0,2.926509857E0,1.409829855E0
8.836086888E0,4.505768299E0,3.597159386E0,9.132504463E-1
8.854984075E0,4.859120369E0,2.615293503E0,-2.539139748E0
8.873881263E0,5.057177544E0,1.779695511E0,-3.035736561E0
8.892778450E0,3.924201965E0,1.073139668E0,-2.347539902E0
8.911675690E0,4.985617161E0,1.023562431E0,-4.175929546E0
8.930572877E0,7.321012974E0,-1.832976341E-1,-2.995167494E0
8.949470065E0,5.641452789E0,-1.910320759E0,-1.314710140E0
8.968367252E0,1.362385273E0,-4.234837055E0,-5.906276703E0
8.987264440E0,-2.500471592E0,-8.012589455E0,-8.839931488E0
9.006161679E0,-3.030211449E0,-1.063200760E1,-3.429169059E-1
9.025058867E0,-3.288841248E-2,-1.184447479E1,4.665307999E0
9.043956054E0,3.519458771E-1,-1.104834747E1,2.357854366E0
9.062853242E0,-3.086647987E-1,-8.276317596E0,-1.057422400E0
9.081750429E0,9.056096077E-1,-3.348223209E0,4.422006607E-1
9.100647669E0,1.703680515E0,-7.922940254E-1,4.219393730E0
9.119544856E0,-4.652824402E-1,3.835525513E-1,6.527452469E0
9.138442044E0,-2.436517239E0,1.372834682E0,8.548834801E0
9.157339231E0,-2.573384523E0,2.249903679E0,9.930932999E0
9.176236419E0,-9.068117142E-1,3.034806728E0,7.250804901E0
9.195133659E0,7.809023857E-1,3.089164972E0,5.258315563E0
9.214030846E0,-4.876213074E-1,3.118643761E0,8.327583313E0
9.232928034E0,-2.040671110E0,3.435501099E0,9.999986649E0
9.251825221E0,-4.043989658E0,2.861511707E0,9.043605804E0
9.270722409E0,-5.600399971E0,3.036352634E0,7.158565998E0
9.289619648E0,-6.499053001E0,3.962238550E0,4.411010742E0
9.308516836E0,-7.569254875E0,4.547122478E0,1.886351585E0
9.327414023E0,-6.007379055E0,3.052343130E0,-2.860720634E0
9.346311211E0,2.874352932E0,-1.878709793E-1,-1.502714348E1
9.365208398E0,4.668827057E0,-1.120223808E1,-1.726246643E1
9.384105638E0,5.062578678E0,-1.383529472E1,-1.155418491E1
9.403002825E0,1.644575596E0,-3.393295765E0,-5.436576843E0
9.421900013E0,1.094702721E0,3.643661976E0,-9.985232353E-1
9.440797200E0,1.527874470E0,-2.765922546E-1,-3.400456905E0
9.459694388E0,4.133337498E0,-1.186333656E1,-7.235719204E0
9.478591575E0,-1.806027889E0,-1.035193253E1,9.486055374E0
9.497488815E0,-3.655473232E0,-3.512058258E-1,8.616643906E0
9.516386002E0,-6.079626560E0,2.999538422E0,7.004395485E0
9.535283190E0,-7.028864384E0,3.611475945E0,5.586207390E0
9.554180377E0,-6.420487881E0,1.711626053E0,8.426517487E0
9.573077565E0,-4.137427807E0,9.286594391E-2,1.065495872E1
9.591974804E0,3.533980370E0,-2.860898018E0,8.421381950E0
9.610871992E0,1.653213882E1,-4.508278847E0,5.921839237E0
9.629769179E0,3.629285336E0,-2.257023811E0,8.372281075E0
9.648666367E0,-1.402770042E0,1.157684326E-1,6.622259140E0
9.667563606E0,-1.890352964E0,2.203818798E0,5.182274818E0
9.686460794E0,4.975190163E-1,2.933471203E0,-9.253979683E0
9.705357981E0,2.342650890E0,1.621896744E0,-1.715093040E1
9.724255169E0,1.588367939E0,3.165721893E-2,-8.429514885E0
9.743152356E0,3.292288780E-1,1.626615524E-1,-8.480169773E-1
9.762049544E0,5.613880157E-1,1.025339603E0,1.194457293E0
9.780946784E0,1.183688641E0,1.362230778E0,-1.175788522E0
9.799843971E0,1.557105541E0,8.583936691E-1,-2.742335796E0
9.818741159E0,2.003623962E0,3.595962524E-1,-2.701885462E0
9.837638346E0,1.601119518E0,8.804492950E-1,-2.637467146E0
9.856535534E0,1.762770176E0,2.274862766E0,-2.791625500E0
9.875432773E0,2.036936283E0,1.109169006E0,-2.965798616E0
9.894329961E0,2.410500526E0,-8.171749115E-1,-2.932755947E0
9.913227148E0,2.819332123E0,3.270006180E-2,-2.442913771E0
9.932124336E0,2.207846165E0,8.691635132E-1,-1.117954731E0
9.951021523E0,1.592039108E0,1.057602882E0,-4.081106186E-1
9.969918711E0,1.793971062E0,8.155794144E-1,-1.437979221E0
9.988815898E0,4.024987698E0,2.302322388E-1,-5.588860512E0
1.000771314E1,7.770969868E0,-3.140172958E-1,-6.104886055E0
1.002661032E1,6.227268696E0,-2.475070953E-1,-2.172484875E0
1.004550751E1,3.579106331E0,-8.264613152E-1,-3.531560898E0
1.006440470E1,-4.164018631E-1,-2.631532669E0,-4.397387505E0
1.008330189E1,-1.424984455E0,-4.660867214E0,9.088664055E-1
1.010219908E1,3.252577782E-1,-6.489956856E0,3.213730335E0
1.012109632E1,1.217174053E0,-8.194795609E0,1.987225652E0
1.013999350E1,8.160161972E-1,-8.991252899E0,-9.517092705E-1
1.015889069E1,1.235874653E0,-6.059700012E0,-9.078929424E-1
1.017778788E1,1.368697643E0,-2.680635929E0,2.602047920E0
1.019668506E1,-4.261326790E-1,-5.961570740E-1,6.818901062E0
1.021558225E1,-1.057284832E0,1.634589195E0,9.453597069E0
1.023447944E1,2.306065559E-1,3.448619604E0,7.953984737E0
1.025337668E1,2.696642876E0,4.458176613E0,6.084723473E0
1.027227387E1,2.771169662E0,3.867692709E0,7.418365955E0
1.029117105E1,2.661752701E-1,2.854163170E0,8.498021126E0
1.031006824E1,-3.100970030E0,1.722604752E0,7.591390610E0
1.032896543E1,-5.991199017E0,9.115672112E-1,7.419491768E0
1.034786262E1,-7.097408295E0,1.760354042E0,6.516242981E0
1.036675980E1,-7.075571060E0,2.724171400E0,3.590062141E0
1.038565699E1,-7.040674210E0,2.956457615E0,1.147426844E0
1.040455418E1,-5.834165573E0,2.346268654E0,9.088075161E-1
1.042345142E1,-2.750252724E0,5.625643730E-1,-8.952894211E-1
1.044234861E1,2.428872108E0,-3.375618935E0,-1.397636127E1
1.046124579E1,9.734062195E0,-8.808517456E0,-1.758571815E1
1.048014298E1,9.341168404E0,-7.201151371E0,-7.569255352E0
1.049904017E1,5.675956249E0,1.549300194E0,3.196501732E-2
1.051793736E1,1.755656719E0,5.211524963E0,-6.942842007E-1
1.053683454E1,8.573193550E-1,2.447242737E-1,-6.073470116E0
1.055573173E1,1.658775330E0,-1.046495819E1,-1.963649988E0
1.057462892E1,-3.891992331E0,-9.927112579E0,8.932746887E0
1.059352616E1,-3.464412689E0,-2.233271599E0,4.646675110E0
1.061242335E1,-5.768174171E0,1.879159451E0,2.464233637E0
1.063132053E1,-6.077885151E0,3.528360844E0,3.343193531E0
1.065021772E1,-5.154303551E0,2.704754353E0,7.115604877E0
1.066911491E1,-3.937430620E0,-1.376619339E-1,7.517384529E0
1.068801210E1,3.291049480E0,-2.141466141E0,7.534330845E0
1.070690928E1,1.192783928E1,-3.094331741E0,7.878764153E0
1.072580647E1,3.122211933E0,-7.620983124E-1,9.098762512E0
1.074470371E1,-2.806372643E-1,9.444479942E-1,6.273571968E0
1.076360090E1,-2.421321869E-1,2.050829887E0,5.302194595E0
1.078249809E1,2.400641441E0,2.769516468E0,-1.319070816E1
1.080139527E1,2.372698784E0,9.595117569E-1,-1.709652710E1
1.082029246E1,1.053661346E0,4.360098839E-1,-5.715649128E0
1.083918965E1,7.914128304E-1,3.393101692E-1,-2.785021067E-2
1.085808684E1,9.091033936E-1,1.276014328E0,6.824536324E-1
1.087698402E1,-5.001716614E-1,9.797620773E-1,-3.221267462E-1
1.089588126E1,-8.841304779E-1,-1.330089569E-1,-1.741964936E0
1.091477845E1,-8.837604523E-2,-6.518049240E-1,-3.236649513E0
1.093367564E1,9.136872292E-1,1.162452698E-1,-2.297476292E0
1.095257282E1,2.234183788E0,1.530902863E0,-1.848844886E0
1.097147001E1,1.992327213E0,1.816478729E0,-3.378968000E0
1.099036720E1,2.252904892E0,6.791534424E-1,-4.304842949E0
1.100926439E1,3.355519295E0,2.910542488E-1,-3.278075457E0
1.102816163E1,5.353960991E0,1.109622955E0,-1.819214106E0
1.104705882E1,5.816694260E0,2.713004589E0,-2.267851830E-1
1.106595600E1,5.461666107E0,2.998376369E0,1.225769520E0
1.108485319E1,7.297682285E0,1.563680172E0,3.999352455E-2
1.110375038E1,5.831501961E0,6.508922577E-2,-1.612842083E0
1.112264756E1,3.682176113E0,-1.303344250E0,-4.874787331E0
1.114154475E1,6.543049812E-1,-2.405858994E0,-8.021196365E0
1.116044199E1,-2.857865334E0,-4.132321835E0,-7.359683990E0
1.117933918E1,-2.996618509E0,-5.710182190E0,-1.421887636E0
1.119823637E1,-7.654066086E-1,-7.183712006E0,2.787488461E0
1.121713355E1,4.649076462E-1,-9.190467834E0,2.421579361E0
1.123603074E1,1.156350613E0,-1.028153801E1,-7.997434139E-1
1.125492793E1,1.841184139E0,-6.535271645E0,-3.052542210E-1
1.127382512E1,9.496269226E-1,-2.566709518E0,3.501030207E0
1.129272236E1,-6.820139885E-1,-4.813265800E-1,5.904128075E0
1.131161954E1,-1.116417408E0,7.271580696E-1,5.956726551E0
1.133051673E1,-6.937322617E-1,1.757620335E0,6.503685951E0
1.134941392E1,4.868636131E-1,2.911099195E0,6.852539539E0
1.136831111E1,1.586943150E0,3.158985376E0,7.435777664E0
1.138720829E1,6.737012863E-1,2.835309029E0,7.992128372E0
1.140610548E1,-1.727191687E0,2.047658443E0,8.020881653E0
1.142500272E1,-4.770286560E0,1.756488323E0,7.854126453E0
1.144389991E1,-6.981026649E0,2.459328651E0,6.939467430E0
1.146279710E1,-7.707207680E0,3.288078547E0,5.146947384E0
1.148169428E1,-7.601090908E0,3.768720627E0,2.007268190E0
1.150059147E1,-6.364711285E0,2.758116722E0,-3.134014130E0
1.151948866E1,-9.334449768E-1,8.236846924E-1,-7.035188198E0
1.153838590E1,2.525543213E0,-5.601315975E0,-1.043505478E1
1.155728309E1,4.184805393E0,-1.173846245E1,-1.204088974E1
1.157618027E1,4.872964859E0,-7.850233078E0,-1.116689587E1
1.159507746E1,1.651402473E0,-2.660980701E0,-6.822762489E0
1.161397465E1,1.470277786E0,-7.267623901E0,-1.604569435E0
1.163287184E1,6.157001495E0,-1.515910530E1,-5.012162685E0
1.165176902E1,3.771307468E0,-4.299687862E0,5.222771168E0
1.167066621E1,-5.154006481E0,5.159833908E0,1.179337978E1
1.168956345E1,-6.745473862E0,8.194082260E0,1.029467201E1
1.170846064E1,-7.141118526E0,7.966228962E0,7.547157288E0
1.172735782E1,-6.925189495E0,4.286022663E0,5.859976768E0
1.174625501E1,-5.626649857E0,3.134083748E-1,7.223186016E0
1.176515220E1,7.760839462E0,-3.832066536E0,9.173368454E0
1.178404939E1,2.078348923E1,-8.271677971E0,7.824637413E0
1.180294663E1,2.572826862E0,-3.412952423E0,6.220435143E0
1.182184382E1,-9.471378326E-1,1.250815868E0,5.257878780E0
1.184074100E1,-1.180554867E0,2.910291672E0,2.082950830E0
1.185963819E1,6.879920959E-1,2.795404911E0,-1.618063927E1
1.187853538E1,1.038105011E0,1.569776535E-1,-1.117595577E1
1.189743256E1,1.362445354E0,-6.310291290E-1,-2.589611769E0
1.191632980E1,8.014016151E-1,4.458236694E-2,-4.862565994E-1
1.193522699E1,-2.260026932E-1,1.384085655E0,3.222793341E-1
1.195412418E1,-1.282166004E0,1.181395531E0,1.184583902E-1
1.197302137E1,-8.987560272E-1,6.886920929E-1,-1.403864622E0
1.199191855E1,-4.303436279E-1,-6.610584259E-2,-1.777158022E0
1.201081574E1,5.727076530E-1,-4.418249130E-1,-1.778228045E0
1.202971293E1,1.582679749E0,3.237338066E-1,-1.785778522E0
1.204861017E1,2.176688671E0,1.376079559E0,-2.886141777E0
1.206750736E1,2.501927376E0,2.219441891E0,-5.225137711E0
1.208640454E1,2.520139217E0,9.460816383E-1,-5.786460400E0
1.210530173E1,3.386332512E0,2.290048599E-1,-3.340022802E0
1.212419892E1,4.008282661E0,1.083261490E0,-1.981116295E0
1.214309611E1,3.257452011E0,2.007970333E0,-3.562818766E-1
1.216199335E1,3.610957146E0,2.269382954E0,3.654831648E-1
1.218089053E1,6.558725834E0,1.018816471E0,1.161899567E-1
1.219978772E1,7.303209782E0,-5.533461571E-1,8.774962425E-1
1.221868491E1,5.197452068E0,-9.900293350E-1,1.404000759E0
1.223758210E1,5.238261223E-1,-2.348865509E0,-4.861238956E0
1.225647928E1,-2.589704037E0,-2.884974957E0,-1.289314175E1
1.227537652E1,-3.853637934E0,-5.046662331E0,-5.719141960E0
1.229427371E1,-9.656338692E-1,-5.897128105E0,2.535996199E0
1.231317090E1,2.202841759E0,-6.780508518E0,5.105210781E0
1.233206809E1,3.201854706E0,-7.547308445E0,3.940010071E0
1.235096527E1,2.566828728E0,-5.669278145E0,2.169744492E0
1.236986246E1,1.581571102E0,-2.381824493E0,3.307924509E0
1.238875970E1,1.557731628E-1,-1.057639122E-1,5.709749222E0
1.240765689E1,-3.866348267E-1,1.048106194E0,6.281312943E0
1.242655408E1,1.252961159E-1,2.036178112E0,5.011647701E0
1.244545126E1,7.232437134E-1,2.291357040E0,5.532552242E0
1.246434845E1,7.082042694E-1,1.916829109E0,6.617497444E0
1.248324569E1,3.543095589E-1,1.652974129E0,7.348050117E0
1.250214288E1,-1.620142460E0,1.109850883E0,7.311571121E0
1.252104006E1,-3.640786648E0,8.578286171E-1,6.619082451E0
1.253993725E1,-5.021744728E0,1.279003143E0,6.511234283E0
1.255883444E1,-5.727795601E0,2.253731251E0,6.157505512E0
1.257773168E1,-6.219429016E0,3.144761086E0,4.261672974E0
1.259662887E1,-6.154393673E0,3.626164675E0,1.542034388E0
1.261552605E1,-4.592225075E0,3.109063864E0,1.146826267E0
1.263442324E1,-1.405795574E0,1.460153580E0,-1.348932266E0
1.265332043E1,5.651113510E0,-3.287382603E0,-1.772454071E1
1.267221767E1,9.992248535E0,-1.128167629E1,-1.588738060E1
1.269111486E1,6.468894958E0,-7.085406780E0,-6.218480110E0
1.271001204E1,3.387020111E0,-4.384231567E-2,-1.853361130E-1
1.272890923E1,1.529782772E0,2.222235203E0,-1.103968143E0
1.274780642E1,1.962866783E0,-4.136547565E0,-6.701312065E0
1.276670366E1,1.393985748E-1,-7.057919025E0,5.559248924E-1
1.278560085E1,-3.813076496E0,-2.940556526E0,6.129515648E0
1.280449803E1,-4.500910759E0,7.200431824E-2,4.871870518E0
1.282339522E1,-5.866629601E0,2.226103306E0,4.087913513E0
1.284229241E1,-5.386394024E0,2.858121872E0,4.489704132E0
1.286118965E1,-2.765396833E0,1.820391178E0,5.943240166E0
1.288008684E1,1.213768482E1,-1.227723122E0,5.771325111E0
1.289898402E1,1.241378403E1,-2.325428963E0,1.215954781E1
1.291788121E1,2.223085880E0,5.904541016E-1,1.158036900E1
1.293677845E1,1.738533974E-1,1.604544163E0,8.261907578E0
1.295567564E1,-1.127725601E0,5.889468193E-1,3.349586487E0
1.297457283E1,-1.577706814E0,-6.427526474E-1,-3.344702005E0
1.299347006E1,-2.140782118E0,-1.201327324E0,-1.873688889E1
1.301236725E1,-2.377076149E0,-2.392047882E0,-9.728778839E0
1.303126444E1,-1.158766270E0,-6.104583740E-1,-2.653717518E0
1.305016163E1,1.221342564E0,2.719926834E-1,-8.515250087E-1
1.306905882E1,2.690192699E0,2.649189472E0,7.740496397E-1
1.308795605E1,7.004580498E-1,1.872284412E0,9.250653982E-1
1.310685324E1,2.185044289E-1,-7.026176453E-1,-2.698127627E-1
1.312575043E1,1.252340317E0,1.443223953E-1,-4.126770973E0
1.314464767E1,2.427970409E0,3.172928810E0,-5.094425201E0
1.316354486E1,2.187438011E0,3.243133068E0,-1.265375495E0
1.318244204E1,2.073184013E0,1.474348545E0,8.112326860E-1
1.320133923E1,1.846309185E0,-3.954238892E-1,1.568015933E0
1.322023647E1,8.818159103E-1,-9.179296494E-1,1.631154656E0
1.323913366E1,1.413088799E0,-1.630526543E0,1.363406897E0
1.325803085E1,2.634003162E0,-2.245374680E0,1.193391085E0
1.327692803E1,2.920528412E0,-2.515904427E0,6.008481979E-2
1.329582527E1,3.068472385E0,-2.190078735E0,-4.493241310E0
1.331472246E1,3.075850964E0,-7.086219788E-1,-6.702075958E0
1.333361965E1,2.225378036E0,4.779014587E-1,-4.215041161E0
1.335251684E1,1.618073463E0,1.622974873E0,-1.158659697E0
1.337141408E1,3.016805649E-2,1.237408638E0,2.969276607E-1
1.339031126E1,-1.448508739E0,2.901439667E-1,-1.967045665E-1
1.340920845E1,-2.821190357E0,-1.502371788E0,-9.945178032E-2
1.342810564E1,-1.087899208E0,-2.348409176E0,1.005268812E0
1.344700288E1,6.894898415E-1,-2.855037212E0,4.060037613E0
1.346590006E1,2.940749645E0,-1.793926239E0,5.508986473E0
1.348479725E1,2.824175358E0,-6.973958015E-1,4.802628517E0
1.350369449E1,1.613625526E0,1.956319809E-1,2.812061548E0
1.352259168E1,6.506881714E-1,7.544603348E-1,1.203654766E0
1.354148887E1,-6.853761673E-1,1.735982895E-1,1.975666046E0
1.356038605E1,-1.336667538E0,-6.988449097E-1,3.471911430E0
1.357928329E1,-1.297026157E0,-3.845543861E-1,4.644724369E0
1.359818048E1,-6.391096115E-1,5.997519493E-1,5.026138306E0
1.361707767E1,6.493186951E-2,1.410654068E0,4.481956482E0
1.363597486E1,-1.731128693E-1,1.768870354E0,3.464153767E0
1.365487210E1,-1.093693018E0,1.318356514E0,3.420939922E0
1.367376928E1,-1.826111794E0,1.375861645E0,3.678417683E0
1.369266647E1,-2.315337658E0,5.299496651E-1,2.736070871E0
1.371156366E1,-2.596441507E0,1.938343048E-2,5.834865570E-1
1.373046090E1,-2.532934904E0,-4.030017853E-1,-8.794229031E-1
1.374935809E1,-7.517814636E-1,-2.011554718E0,-1.662229300E0
1.376825527E1,7.231631279E-1,-2.957464218E0,-3.484323502E0
1.378715246E1,5.667433739E-1,-1.777899742E0,-6.470257282E0
1.380604970E1,-1.021253586E0,-2.537120819E0,-6.360772610E0
1.382494689E1,-5.742935181E0,-6.110188484E0,8.255541325E-1
1.384384408E1,-7.387401581E0,-4.293779373E0,5.003798008E0
1.386274132E1,-3.320970535E0,-2.723351479E0,-6.991838217E-1
1.388163850E1,3.522333145E0,-1.065708160E0,4.360074997E0
1.390053569E1,3.850077152E0,-2.482976913E-1,6.434130669E0
1.391943288E1,2.639632702E0,-3.540172577E-1,4.079018116E0
1.393833012E1,1.106326580E0,1.267582417E0,3.876572609E0
1.395722730E1,5.920224190E-1,1.515569687E-1,1.698877335E0
1.397612449E1,5.530548096E-1,-6.509075165E-1,3.160564601E-1
1.399502168E1,-9.503507614E-2,-3.681230545E-1,1.324452639E0
1.401391892E1,-1.719686747E0,1.437597275E-1,1.577557325E0
1.403281611E1,-2.167901516E0,1.054418564E0,8.756462932E-1
1.405171329E1,-2.436104059E0,9.269967079E-1,-2.060889721E0
1.407061053E1,-8.569107056E-1,8.476324081E-1,-2.186190128E0
1.408950772E1,1.053498745E0,1.433453560E0,1.754204869E0
1.410840491E1,8.742318153E-1,1.273845196E0,3.275747538E0
1.412730215E1,2.872333527E-1,-1.093158722E-1,1.446879387E0
1.414619934E1,6.484560966E-1,-1.209267616E0,-2.223047018E-1
1.416509652E1,1.520216465E0,-2.116546631E0,-2.198475599E-2
1.418399376E1,2.079910755E0,-1.464262009E0,-1.876551867E0
1.420289095E1,2.486476898E0,-5.545616150E-2,-6.368198395E0
1.422178814E1,1.492763519E0,2.479228973E-1,-5.343308926E0
1.424068533E1,1.032748222E-1,-1.584806442E-1,-1.764781237E0
1.425958256E1,1.103711128E-1,-2.915954590E-2,-2.020079494E-1
1.427847975E1,-8.346748352E-2,3.089146614E-1,1.141796589E0
1.429737694E1,-3.028392792E-3,6.246938705E-1,1.980597854E0
1.431627418E1,2.386803627E-1,8.318595886E-1,2.725526094E0
1.433517137E1,6.051425934E-1,9.715089798E-1,3.026093960E0
1.435406855E1,6.476149559E-1,2.729973793E-1,2.658851147E0
1.437296574E1,2.036924362E-1,-8.200654984E-1,3.027437925E-1
1.439186298E1,-6.515035629E-1,-4.925527573E-1,-1.816274881E0
1.441076017E1,-2.358369827E-1,-1.341056824E-2,-2.260401249E0
1.442965741E1,-1.313495636E-2,-1.108169556E-3,-2.222195864E0
1.444855460E1,-2.130689621E-1,1.442108154E-1,-1.249158144E0
1.446745178E1,1.003714561E0,7.186918259E-1,-3.116440177E-1
1.448634902E1,6.270046234E-1,6.291489601E-1,1.401328325E0
1.450524621E1,-3.890299797E-1,-2.922353745E-1,1.532372236E0
1.452414340E1,-6.525816917E-1,-7.896671295E-1,7.826792598E-1
1.454304064E1,-4.755463600E-1,-3.378849030E-1,9.584941268E-1
1.456193783E1,-1.396551132E-1,1.565694809E-2,6.956638098E-1
1.458083501E1,-4.393024445E-1,5.445241928E-2,2.786543369E-1
1.459973225E1,-9.484043121E-1,-2.824707031E-1,-4.179892242E-1
1.461862944E1,-1.259906769E0,-6.895675659E-1,-9.742839932E-1
1.463752663E1,-1.263597965E0,-1.410926819E0,-1.318169594E0
1.465642366E1,-1.274778843E0,-1.700729370E0,-1.812725544E0
1.467532105E1,-1.142968655E0,-1.373966694E0,-2.071759224E0
1.469421824E1,-9.843440056E-1,-1.136589050E0,-1.682220817E0
1.471311548E1,-7.576136589E-1,-1.273818493E0,-1.437342644E0
1.473201267E1,-6.164727211E-1,-1.404841900E0,-1.099570036E0
1.475090986E1,-5.573296547E-1,-1.204717636E0,-6.450852156E-1
1.476980710E1,-2.557134628E-1,-5.573925972E-1,9.031713009E-3
1.478870428E1,-4.755516052E-1,1.048851013E-2,7.729668617E-1
1.480760147E1,1.488924026E-1,6.588048935E-1,6.568735838E-1
1.482649871E1,2.075896263E-1,4.273734093E-1,7.638245821E-1
1.484539590E1,8.638978004E-1,6.996288300E-1,6.878442168E-1
1.486429314E1,9.725880623E-1,3.890700340E-1,2.050085664E-1
1.488319033E1,8.281464577E-1,6.131029129E-2,3.521140814E-1
1.490208751E1,2.512588501E-1,-3.092765808E-2,4.244694114E-1
1.492098475E1,1.168999672E-1,2.743287086E-1,3.595720232E-2
1.493988194E1,-5.933475494E-2,1.810793877E-1,-3.647863865E-2
1.495877913E1,-5.769572258E-1,-6.835746765E-1,-2.505383492E-1
1.497767637E1,1.518917084E-2,-3.292350769E-1,-1.050426245E0
1.499657355E1,-6.826224327E-1,-1.110017776E0,-4.519683123E-1
1.501547074E1,-1.115231514E-1,-5.562934875E-1,-3.287479877E-1
1.503436798E1,-1.036759377E0,-1.267162323E0,-1.072738767E-1
1.505326517E1,-1.154630184E0,-9.983530045E-1,2.175213546E-1
1.507216236E1,5.156946182E-1,-1.204521179E0,6.423636675E-1
1.509105960E1,2.633133888E0,-1.512842178E-1,1.988075674E-1
1.510995678E1,2.617582321E0,2.741727829E-1,3.568690419E-1
1.512885397E1,2.775872231E0,1.114309788E0,1.357353926E0
1.514775121E1,2.743576050E0,1.582839966E0,2.277487516E0
1.516664840E1,2.318654537E0,1.660925388E0,3.955985010E-1
1.518554564E1,1.987884045E0,1.931212425E0,-7.413865328E-1
1.520444283E1,1.071253777E0,1.739947319E0,-9.391385913E-1
1.522334001E1,8.276462555E-2,1.062436581E0,-1.172240302E-1
1.524223725E1,-4.911856651E-1,1.203677654E0,-1.562023759E-1
1.526113444E1,-9.916038513E-1,1.876019478E0,-8.440752625E-1
1.528003163E1,-1.056977272E0,2.000824928E0,-7.322624922E-1
1.529892887E1,-6.336784363E-2,1.525206566E0,-2.468699217E-1
1.531782605E1,3.451538086E-2,8.111786842E-1,-3.969037831E-1
1.533672324E1,2.421822548E-1,7.846555710E-1,-3.831323385E-1
1.535562048E1,9.411525726E-1,3.870892525E-1,-1.172789693E0
1.537451767E1,8.790073395E-1,1.582446098E-1,-5.684732795E-1
1.539341486E1,1.460143089E0,7.139968872E-2,1.211481810E0
1.541231210E1,1.140491486E0,-1.301397800E0,-4.508757591E-2
1.543120928E1,4.543557167E-1,-1.117583275E0,-1.993766785E0
1.545010647E1,-3.448185921E-1,-2.131562233E-1,-6.320396662E-1
1.546900371E1,-1.570581913E0,-1.074661255E0,2.993503809E-1
1.548790090E1,-3.166165352E-1,-3.256688118E-1,-2.592542171E-1
1.550679809E1,-8.900165558E-2,-1.298446655E-1,-9.731745720E-2
1.552569533E1,-5.335984230E-1,-1.009941101E0,-8.182525635E-2
1.554459251E1,-6.675801277E-1,-1.021122932E0,-1.144862175E-2
1.556348970E1,-6.946787834E-1,-1.188299179E0,-4.048824310E-2
1.558238694E1,-1.074646950E0,-1.764002323E0,3.000557423E-1
1.560128413E1,4.125685692E-1,8.744783401E-1,1.437196732E-1
1.562018132E1,3.751211166E-1,-1.075417042E0,1.721205473E0
1.563907855E1,2.811589241E-1,-1.972428322E0,4.957365990E-2
1.565797574E1,-3.897614479E-1,-6.540589333E-1,6.670856476E-1
1.567687277E1,-5.629048347E-1,1.276157379E0,1.356360912E0
1.569577017E1,-7.341475487E-1,1.583191872E0,1.168806076E0
1.571466736E1,-1.917453289E0,1.287718296E0,1.097669125E0
1.573356454E1,-7.340230942E-1,5.589122772E-1,2.097757816E0
1.575246178E1,-1.776249886E0,-5.867509842E-1,2.666270733E-1
1.577135897E1,-1.234884739E0,-1.656110287E0,-2.270410061E-1
1.579025621E1,6.032943726E-3,-2.054413319E0,5.775094032E-2
1.580915340E1,-6.701540947E-1,-2.123288155E0,-2.458276749E-1
1.582805059E1,-1.739243984E0,-2.307894230E0,4.724769592E-1
1.584694782E1,-2.527075291E0,-3.327618599E0,-3.559074402E-1
1.586584501E1,-7.517123222E-1,-2.460708618E0,-6.572065353E-1
1.588474220E1,1.727137089E0,-1.622368336E0,-5.816442966E-1
1.590363944E1,-6.569099426E-1,-3.173109055E0,5.126163960E-1
1.592253663E1,-1.645552158E0,-3.205687523E0,2.630996704E-2
1.594143382E1,5.291399956E-1,-1.323168278E0,-1.832692623E-1
1.596033105E1,9.391975403E-1,-7.260265350E-1,-1.880722284E0
1.597922824E1,-1.390027046E0,-1.439215183E0,-2.028169394E0
1.599812548E1,-1.187454700E0,-8.773508072E-1,-2.460560799E0
1.601702267E1,5.422635078E-1,-9.200792313E-1,-2.065126896E0
1.603591986E1,2.879528999E-1,-1.513408661E0,-1.465118051E0
1.605481710E1,-4.297078133E0,-3.218561172E0,1.087154627E0
1.607371428E1,-2.942781448E-1,-2.230787277E0,-4.070996284E0
1.609261152E1,1.497199535E0,-9.334888458E-1,-3.698421478E0
1.611150871E1,1.601738930E0,-2.468004227E-1,-1.980511665E0
1.613040590E1,3.075252056E0,6.325564384E-1,-2.309633017E0
1.614930314E1,4.228363514E0,1.330530167E0,-3.506458282E0
1.616820032E1,3.672619820E0,1.523438454E0,-4.847605705E0
1.618709751E1,3.538939476E0,1.439400196E0,-5.733510017E0
1.620599475E1,4.630028248E0,1.871530056E0,-5.250839233E0
1.622489194E1,5.344579220E0,2.177809238E0,-3.227623463E0
1.624378918E1,6.270060062E0,2.734986782E0,-1.554995298E0
1.626268637E1,6.761276245E0,3.323872566E0,-2.583279610E-1
1.628158355E1,6.124333858E0,2.935595989E0,-4.730031490E-1
1.630048079E1,5.761980057E0,2.674124241E0,-1.502474070E0
1.631937798E1,5.633687496E0,2.494348526E0,-1.431781769E0
1.633827522E1,5.075839996E0,1.991907358E0,-9.830451012E-1
1.635717241E1,4.468471527E0,1.439113379E0,7.262394428E-1
1.637606944E1,5.245927811E0,9.569787979E-1,4.915769100E0
1.639496684E1,4.383385658E0,-4.252741337E-1,6.562285423E0
1.641386402E1,3.362811089E0,-1.473553419E0,6.661618710E0
1.643276126E1,3.119255066E0,-2.655570507E0,6.195431232E0
1.645165845E1,2.806332588E0,-4.474447727E0,4.011697769E0
1.647055564E1,2.625215530E0,-6.089006424E0,1.107403755E0
1.648945288E1,1.056142807E0,-8.211233139E0,-1.528704166E-1
1.650835007E1,-2.307778835E0,-9.367675781E0,-3.486120701E-1
1.652724730E1,-5.443666458E0,-8.693940163E0,-7.409546375E-1
1.654614449E1,-5.727377415E0,-7.316098213E0,-1.286298752E0
1.656504168E1,-4.054573536E0,-6.268805027E0,-1.849918842E0
1.658393892E1,-1.764227390E0,-5.530695438E0,-1.600111008E0
1.660283611E1,9.748411179E-2,-4.765500546E0,5.109443665E-1
1.662173335E1,8.045387268E-2,-4.512162685E0,8.567590714E-1
1.664063053E1,-1.182554483E0,-4.484984875E0,-7.822022438E-1
1.665952777E1,-2.002753735E0,-4.389369965E0,-1.450057507E0
1.667842496E1,-1.888041615E0,-3.895539761E0,-1.959329128E0
1.669732215E1,-6.671268940E-1,-3.241802931E0,-2.313549042E0
1.671621939E1,-7.879643440E-1,-2.663341999E0,-2.528759956E0
1.673511658E1,-1.049508333E0,-2.192769051E0,-2.820070267E0
1.675401382E1,-5.852551460E-1,-1.793257713E0,-2.651528358E0
1.677291100E1,-5.710911751E-2,-1.338340759E0,-2.240315437E0
1.679180819E1,2.315416336E-1,-1.511274338E0,-1.979479790E0
1.681070543E1,1.037427187E-1,-1.675188065E0,-8.793768883E-1
1.682960262E1,-1.813803613E-1,-2.083227634E0,6.564607620E-1
1.684849986E1,-4.812578559E-1,-2.015386105E0,1.129365921E0
1.686739704E1,-3.362249732E-1,-1.004242897E0,1.573394775E0
1.688629423E1,9.336777329E-1,-2.449660301E-1,8.692007065E-1
1.690519147E1,8.136242628E-1,-1.161613464E-1,-7.075424194E-1
1.692408866E1,3.696012497E-1,-3.664884567E-1,-1.048954487E0
1.694298590E1,1.809157848E0,-8.553981781E-2,4.810698509E0
1.696188309E1,3.858427763E0,1.864803791E0,5.351363182E0
1.698078027E1,2.810246944E0,1.755662918E0,1.815826893E0
1.699967751E1,-3.229323030E-2,7.350459099E-1,4.448142052E-1
1.701857470E1,-6.297686696E-1,6.561484337E-1,-5.328655243E-3
1.703747189E1,-3.555683494E-1,6.819343567E-2,7.691035271E-1
1.705636913E1,-1.034882426E0,-2.995762825E-1,1.337207317E0
1.707526632E1,-1.007559061E0,-2.779207230E-1,8.218312263E-1
1.709416355E1,2.555072308E-3,-1.202402115E-1,8.243365288E-1
1.711306074E1,8.589841127E-1,-4.020347595E-1,1.545040131E0
1.713195793E1,2.943363190E-1,-1.178976059E0,7.818427086E-1
1.715085517E1,5.833556652E-1,-1.461068153E0,-9.335813522E-1
1.716975236E1,1.360803962E0,-1.202759266E0,-2.291550636E0
1.718864960E1,1.773859262E0,-1.137598515E0,-2.343791962E0
1.720754678E1,1.558947563E0,-1.374073505E0,-1.122707844E0
1.722644397E1,1.281173944E0,-1.167240143E0,-8.600416183E-1
1.724534100E1,1.199041128E0,-1.068999290E0,-4.674739838E-1
1.726423840E1,-3.803683817E-1,-1.724762440E0,-6.165580750E-1
1.728313559E1,3.772449493E-2,-1.420238972E0,2.689938545E-1
1.730203282E1,8.055960536E-1,-1.205734730E0,6.944260597E-1
1.732093001E1,5.641385317E-1,-5.636110306E-1,-4.351649284E-1
1.733982720E1,5.294120312E-1,-2.218890190E-1,-2.354273796E-1
1.735872444E1,-1.653313786E-1,-6.639637947E-1,-3.379440308E-2
1.737762163E1,-9.636609554E-1,-1.949552536E0,6.773829460E-1
1.739651887E1,-1.435713887E0,-2.482563972E0,1.003544331E0
1.741541605E1,-1.077179313E0,7.839694023E-1,-1.116677761E0
1.743431324E1,6.188864708E-1,4.152312279E-1,1.554965973E-3
1.745321048E1,6.891369820E-1,3.902969360E-1,-1.072311401E-1
1.747210767E1,3.453883231E-1,1.877670288E-1,-7.167220116E-1
1.749100486E1,-9.783506393E-4,2.737293243E-1,1.256670952E-1
1.750990210E1,1.363903284E-2,4.794960022E-1,4.934439659E-1
1.752879928E1,3.782880902E-1,8.227930069E-1,3.241357803E-1
1.754769652E1,1.128651977E0,9.366416931E-1,3.814983368E-1
1.756659371E1,8.103953600E-1,8.017320633E-1,1.078419685E-1
1.758549090E1,-5.039051771E-1,7.437286377E-1,-1.388596773E0
1.760438814E1,-1.433359385E-1,6.612367630E-1,-2.115313768E0
1.762328532E1,3.261638582E-1,4.244451523E-1,-1.248506784E0
1.764218257E1,-1.021229982E0,5.839586258E-1,-4.465651512E-1
1.766107975E1,-7.405014038E-1,6.802110672E-1,-2.316637039E-1
1.767997694E1,3.065057397E-1,7.135419846E-1,1.296153069E-1
1.769887418E1,3.271534741E-1,6.363019943E-1,7.572512627E-1
1.771777137E1,-4.885931611E-1,3.763427734E-1,5.068116188E-1
1.773666861E1,-1.248235226E0,4.288339615E-1,-9.020538330E-1
1.775556579E1,-1.336823583E0,7.777109146E-1,-1.824422121E0
1.777446298E1,-1.382290721E0,6.943454742E-1,-1.373502493E0
1.779336022E1,-3.113880754E-1,3.541841507E-1,-9.820971489E-1
1.781225741E1,3.445426524E-1,-1.911735535E-1,-6.369733810E-1
1.783115465E1,8.913154602E-1,-5.713868141E-1,-4.322919846E-1
1.785005184E1,1.868401170E0,-6.390409470E-1,1.328911781E0
1.786894902E1,2.261885405E0,-3.710451126E-1,3.073399067E0
1.788784626E1,1.789930701E0,-6.212759018E-1,3.432748795E0
1.790674345E1,4.980059862E-1,-8.970608711E-1,1.872159958E0
1.792564069E1,-8.747471571E-1,-9.127964973E-1,4.778051376E-2
1.794453788E1,-1.987630606E0,-1.143774986E0,-3.110370636E-1
1.796343507E1,-1.541435003E0,-1.401295662E0,1.083228111E0
1.798233230E1,9.092485905E-2,-1.012480259E0,1.605538845E0
1.800122949E1,8.018043041E-1,-5.150513649E-1,1.333202839E0
1.802012673E1,7.314651012E-1,-3.786988258E-1,1.009803295E0
1.803902392E1,4.108209014E-1,-7.004928589E-1,7.124581337E-1
1.805792111E1,-4.339748323E-1,-1.058640957E0,-3.781104088E-1
1.807681835E1,-1.277941942E0,-1.111302376E0,-1.119793415E0
1.809571553E1,-1.164851785E0,-1.052544594E0,-8.608794212E-1
1.811461272E1,-4.310222268E-1,-7.433843613E-1,-3.437647820E-1
1.813350996E1,4.653135836E-1,-1.541275978E-1,-1.268780231E0
1.815240715E1,-2.498447895E-3,-2.152371407E-1,-3.021668911E0
1.817130439E1,-9.426587820E-1,-8.994188309E-1,-2.364849091E0
1.819020158E1,-1.596568108E0,-2.145521641E0,-2.493482113E0
1.820909876E1,-1.889300585E0,-2.795843840E0,-2.331194878E0
1.822799600E1,-2.554483414E-1,-2.467390537E0,-2.068287373E0
1.824689319E1,5.547686815E-1,-1.451261997E0,-1.016543865E0
1.826579043E1,4.182403982E-1,-3.336434364E-1,7.838606834E-1
1.828468762E1,4.129456282E-1,-1.150112629E0,2.961146355E0
1.830358486E1,1.634117365E0,-1.906016111E0,4.255135059E0
1.832248204E1,4.071979046E0,-7.467541695E-1,5.129292965E0
1.834137923E1,4.733060360E0,3.407144547E-1,3.877998829E0
1.836027647E1,3.242283583E0,1.932320595E-1,1.514814854E0
1.837917366E1,1.758578062E0,-5.344142914E-1,8.381285667E-1
1.839807085E1,-5.118884444E-1,-9.481925964E-1,-1.948143959E0
1.841696809E1,-4.215862274E0,-9.716372490E-1,-4.987147331E0
1.843586527E1,-9.256942749E0,-1.279933453E0,-6.292456627E0
1.845476251E1,-4.614704132E0,-1.054704666E0,-5.449698448E0
1.847365970E1,3.704370856E-1,-6.070289612E-1,-2.056299686E0
1.849255689E1,2.396727562E0,-1.188361645E0,2.963078499E0
1.851145413E1,4.526995182E0,-9.489989281E-2,6.614926338E0
1.853035132E1,4.553647995E0,-2.039181709E0,6.467649460E0
1.854924855E1,4.056116581E0,-1.544146061E0,4.235079765E0
1.856814574E1,1.029417753E0,1.646810532E0,-2.440640450E0
1.858704293E1,4.519648254E-1,1.891136646E0,-9.431099892E-1
1.860594017E1,-3.490960300E-1,5.109305382E-1,-2.808278084E0
1.862483736E1,-2.023621321E0,-4.496948719E-1,-3.151952744E0
1.864373454E1,-8.239095211E-1,-1.421661615E0,2.496026039E0
1.866263178E1,-1.379808784E-1,-2.537930250E0,5.289017677E0
1.868152897E1,5.740913153E-1,-9.248385429E-1,3.691406250E0
1.870042621E1,1.560235023E0,2.160194874E0,1.246452332E-1
1.871932340E1,2.359947443E0,3.046812534E0,-2.098583698E0
1.873822059E1,1.380742669E0,1.608294010E0,-2.326812267E0
1.875711782E1,6.643270850E-1,2.099575996E-1,4.493236542E-2
1.877601501E1,8.352498412E-1,-1.298705339E0,5.678064346E0
1.879491225E1,1.684685946E-1,-1.729958057E0,6.699158669E0
1.881380944E1,2.047508955E-1,8.966255188E-1,7.215938568E-1
1.883270663E1,8.357254267E-1,2.305552006E0,-4.652354240E0
1.885160387E1,7.488790751E-1,1.198369026E0,-6.611100674E0
1.887050105E1,-4.578018188E-1,4.606308937E-1,-3.684068203E0
1.888939824E1,-1.373415947E0,-5.368518829E-2,1.284956932E0
1.890829548E1,-1.169221640E0,-8.323593140E-1,4.828896523E0
1.892719267E1,-3.968858719E-2,-2.565116882E-1,3.651733398E0
1.894608986E1,1.146507740E0,1.549454212E0,-2.746486664E-1
1.896498710E1,1.761973739E0,2.450330734E0,-4.179480553E0
1.898388428E1,1.202912688E0,2.009908199E0,-4.405738831E0
1.900278132E1,3.645322323E-1,1.772242069E0,-1.554715633E0
1.902167871E1,5.914286375E-1,8.362398148E-1,1.027386665E0
1.904057590E1,-2.056770325E-1,1.706414223E-1,2.519569397E0
1.905947314E1,-1.011463165E0,-4.423761368E-2,2.104141235E0
1.907837032E1,-3.865611553E-1,-1.751232147E-2,4.233641624E-1
1.909726751E1,6.817212105E-1,7.036814690E-1,-3.333058357E-1
1.911616475E1,6.614048481E-1,1.147646904E0,-8.876051903E-1
1.913506194E1,2.898430824E-1,1.098625660E0,2.723693848E-3
1.915395918E1,-1.582565308E-1,8.010797501E-1,1.953523636E0
1.917285637E1,4.034512043E-1,2.939457893E-1,2.179452896E0
1.919175355E1,7.811357975E-1,6.868648529E-1,9.720706940E-2
1.921065079E1,4.393978119E-1,1.787096500E0,-2.015537262E0
1.922954798E1,1.411471367E-1,2.478844166E0,-1.791306973E0
1.924844517E1,3.395357132E-1,1.859502316E0,4.758710861E-1
1.926734241E1,-2.596197128E-1,4.748001099E-1,2.609022617E0
1.928623960E1,-9.814772606E-1,-1.073920727E0,3.626430988E0
1.930513684E1,-8.058290482E-1,-1.429862976E0,2.778787136E0
1.932403402E1,5.635240078E-1,-1.068201065E0,6.682281494E-1
1.934293121E1,1.275573730E0,-6.533198357E-1,-1.565472126E0
1.936182845E1,4.446864128E-1,-6.229972839E-1,-2.145941734E0
1.938072564E1,-4.978537560E-1,-8.041949272E-1,-1.343077183E0
1.939962288E1,-1.918835640E-1,-1.072068214E0,2.979588509E-1
1.941852007E1,-6.658377647E-1,-1.904373646E0,-5.263919830E-1
1.943741725E1,-8.672695160E-1,-1.692966938E0,-1.265363216E0
1.945631449E1,3.606417179E-1,-7.821483612E-1,-1.198371887E0
1.947521168E1,1.049172163E0,4.272642136E-1,-1.769987583E0
