"Time (s)","Gyroscope x (rad/s)","Gyroscope y (rad/s)","Gyroscope z (rad/s)"
5.060913100E-2,-2.118112892E-1,4.656183124E-1,5.115845799E-2
7.038053800E-2,-1.391204596E-1,2.499892414E-1,5.787777901E-2
9.015027700E-2,-2.447970361E-1,2.860292196E-1,5.299099907E-2
1.099216310E-1,-4.323271513E-1,5.450284481E-1,4.016320780E-2
1.296914230E-1,-5.270084739E-1,7.606575489E-1,3.894151375E-2
1.494627770E-1,-4.781406820E-1,5.535803437E-1,9.009997360E-3
1.692325170E-1,-4.353813827E-1,6.464291215E-1,2.733541466E-2
1.890039230E-1,-4.030064642E-1,1.099677801E0,1.214058921E-1
2.087736630E-1,-3.077143133E-1,1.103342891E0,2.632751763E-1
2.285450690E-1,-2.692309320E-1,9.506310225E-1,2.333436459E-1
2.483148080E-1,-4.549284875E-1,9.475768209E-1,2.418955117E-1
2.680861630E-1,-8.232693672E-1,6.299362183E-1,3.011476994E-1
2.878559540E-1,-9.069554806E-1,1.046075895E-1,1.722589284E-1
3.076273080E-1,-5.661026835E-1,-4.810422286E-2,5.848862603E-2
3.273971000E-1,-4.023956358E-1,1.786728203E-2,1.165191159E-1
3.471684540E-1,-3.388675153E-1,1.840177327E-1,2.009687424E-1
3.669381940E-1,-3.419217467E-1,4.075878263E-1,2.718270421E-1
3.867096000E-1,-4.396573007E-1,4.485146105E-1,3.463504016E-1
4.064793400E-1,-5.673243999E-1,3.361186981E-1,4.202629030E-1
4.262506940E-1,-6.131379604E-1,1.583621502E-1,2.559449971E-1
4.460204850E-1,-3.315373361E-1,1.803526580E-1,-6.261184346E-3
4.657918400E-1,-1.831014603E-1,3.226800561E-1,-6.795676053E-2
4.855615790E-1,-2.386885732E-1,2.878617644E-1,-1.278197914E-1
5.053329850E-1,-1.837123185E-1,-7.803573459E-2,-1.687465608E-1
5.251027250E-1,-3.529170156E-1,-3.785725832E-1,-1.088835225E-1
5.448740790E-1,-7.511894107E-1,-2.148655206E-1,-8.750387281E-2
5.646438710E-1,-1.192831993E0,2.548760176E-1,-2.347180545E-1
5.844152250E-1,-1.500699043E0,3.709369898E-1,-3.868190348E-1
6.041850170E-1,-1.330272675E0,-7.131642103E-2,-2.878617644E-1
6.239563710E-1,-9.173398614E-1,-5.037962794E-1,-1.363716573E-1
6.437261100E-1,-6.082511544E-1,-5.606050491E-1,-3.436015919E-2
6.634974650E-1,1.962346882E-1,5.419742465E-1,2.968717813E-1
6.832672560E-1,7.081246972E-1,2.067870617E0,9.779664874E-1
7.030386100E-1,1.035080671E0,2.733694077E0,1.191763043E0
7.228084020E-1,1.730224848E0,3.044615507E0,1.711593986E0
7.425797560E-1,2.628781080E0,2.166217089E0,2.049392462E0
7.623494960E-1,2.212794304E0,1.347681761E0,1.114185452E0
7.821209020E-1,1.341725945E0,2.775842667E0,2.925958335E-1
8.018906420E-1,4.790569544E-1,2.216306686E0,1.330119967E-1
8.216619960E-1,-2.142546773E-1,1.124111652E0,-2.817533016E-1
8.414317880E-1,-5.013529062E-1,1.617065430E0,-8.419002295E-1
8.612031420E-1,-4.504998401E-2,2.180877447E0,-1.232231617E0
8.809728810E-1,8.632798791E-1,1.857128382E0,-1.355622768E0
9.007442880E-1,1.835290551E0,1.027597785E0,-1.242005229E0
9.205140270E-1,2.092457294E0,7.062921524E-1,-1.632336617E0
9.402853810E-1,1.681357026E0,1.968455315E-1,-1.824142575E0
9.600551730E-1,1.008814216E0,1.430909634E-1,-1.819866657E0
9.798265270E-1,5.963396430E-1,1.577513069E-1,-2.089250326E0
9.995962670E-1,6.245913357E-2,1.070509851E-1,-2.880297422E0
1.019367673E0,-6.241331697E-1,3.116848171E-1,-3.488701344E0
1.039137413E0,-1.400520086E0,7.777612805E-1,-3.570554972E0
1.058908767E0,-1.374253631E0,6.940752268E-1,-3.441666126E0
1.078678558E0,-1.122584581E0,2.872509360E-1,-3.001856089E0
1.098449913E0,-1.144575000E0,-2.305948362E-2,-2.461867094E0
1.118219652E0,-1.465269804E0,-3.955236077E-2,-2.310377121E0
1.137991058E0,-1.926459551E0,3.293993771E-1,-2.532114506E0
1.157760798E0,-2.184847832E0,8.492304087E-1,-2.546164036E0
1.177532152E0,-2.269144773E0,1.109451294E0,-2.413610220E0
1.197301944E0,-2.426743507E0,1.256054640E0,-2.427048922E0
1.217073298E0,-2.645426750E0,1.012937427E0,-2.742246151E0
1.236843038E0,-2.833567619E0,9.316948056E-1,-3.121582270E0
1.256614444E0,-2.774926424E0,1.436254621E0,-3.324383497E0
1.276384183E0,-2.553188801E0,2.012283564E0,-3.288954258E0
1.296155538E0,-2.365658760E0,2.113073349E0,-3.098980904E0
1.315925329E0,-2.346111536E0,1.296981454E0,-2.635958672E0
1.335696683E0,-2.163468361E0,2.524326444E-1,-1.998234153E0
1.355466423E0,-1.530630469E0,-3.504736125E-1,-1.639666796E0
1.375237777E0,-8.867974877E-1,-1.794363856E-1,-1.663489819E0
1.395007569E0,-7.554653287E-1,8.516737819E-1,-1.749008417E0
1.414778923E0,-8.715263009E-1,2.069092274E0,-1.615232825E0
1.434548663E0,-9.362761378E-1,2.386733055E0,-1.326912999E0
1.454320069E0,-8.721371889E-1,2.210198164E0,-9.426900148E-1
1.474089808E0,-8.086090684E-1,1.508334637E0,-6.030589342E-1
1.493861163E0,-8.929060102E-1,6.726955175E-1,-3.129065037E-1
1.513630902E0,-9.527690411E-1,-3.466558084E-2,-1.394258887E-1
1.533402308E0,-8.196043372E-1,-1.611109674E-1,-3.061871827E-1
1.553172048E0,-5.532749295E-1,2.304421216E-1,-8.046385646E-1
1.572943402E0,6.612421572E-2,1.081352353E0,-1.185196400E0
1.592713142E0,9.379559755E-1,1.204743505E0,-9.677347541E-1
1.612484548E0,1.204285383E0,5.879404768E-2,-3.758237660E-1
1.632254288E0,5.981721878E-1,-2.399102598E-1,-1.791309565E-1
1.652025642E0,-1.159082651E-1,7.594358325E-1,-5.395308137E-1
1.671795433E0,-5.421269313E-2,1.527270913E0,-2.161330223E0
1.691566788E0,-1.511846948E-2,1.847354770E0,-2.017170429E0
1.711336579E0,2.982461751E-1,-3.126010895E-1,-1.451525807E0
1.731107933E0,3.953709006E-1,3.336753249E-1,-1.246891975E0
1.750877673E0,-4.042281806E-1,1.110673070E0,-1.317750216E0
1.770649079E0,-1.335770249E0,1.192526579E0,-1.397160411E0
1.790418819E0,-2.021140814E0,-2.863346636E-1,-5.114318728E-1
1.810190173E0,-1.970440507E0,-1.586370349E0,1.230246425E0
1.829959965E0,-5.471664071E-1,-6.210789680E-1,1.815438032E0
1.849731319E0,6.177192926E-1,-2.014268786E-1,9.999569654E-1
1.869501110E0,-1.501157135E-1,6.262711287E-1,3.634541333E-1
1.889272465E0,-1.435338378E0,7.362236381E-1,-2.958027720E-1
1.909042204E0,-2.237991571E0,1.724116355E-1,-2.719797492E-1
1.928813610E0,-2.264258146E0,-8.234221339E-1,6.566607859E-3
1.948583350E0,-2.640539885E0,-1.647455096E0,3.475720882E-1
1.968354756E0,-2.318012714E0,-1.991972923E0,6.474980712E-1
1.988124496E0,-1.101815701E0,-2.144073963E0,7.843278646E-1
2.007895902E0,1.441904902E0,-2.059166193E0,8.545753360E-1
2.027665642E0,1.082115889E0,-1.097692490E0,5.949652195E-1
2.047437048E0,3.313846514E-2,-1.281557560E0,5.467082858E-1
2.067206788E0,-3.706315756E-1,-1.349972486E0,7.995990515E-1
2.086978194E0,-7.237012982E-1,-1.187487125E0,6.591041684E-1
2.106747933E0,-8.690829277E-1,-1.557049632E0,5.601469278E-1
2.126519340E0,-6.540647149E-1,-1.642568231E0,9.352071285E-1
2.146289131E0,-9.344435930E-1,-1.955322027E0,9.920159578E-1
2.166060485E0,-1.077992678E0,-2.630308390E0,5.778614879E-1
2.185830277E0,-5.221216679E-1,-2.917406559E0,3.579564989E-1
2.205601631E0,1.127929449E0,-1.760461807E0,-9.300149232E-2
2.225371423E0,1.775427580E0,-9.724688530E-1,-1.122279167E0
2.245142777E0,1.586675763E0,-5.239542127E-1,-2.271893740E0
2.264912569E0,1.730224848E0,-5.306735635E-1,-2.105743170E0
2.284683975E0,2.597627878E0,-1.185654521E0,-5.670189857E-1
2.304453715E0,3.155942440E0,-1.963873982E0,-1.124111652E0
2.324225121E0,-1.452289373E-1,-2.294953108E0,-3.431892633E0
2.343994913E0,-2.440181971E0,1.803526580E-1,-2.634126186E0
2.363766267E0,-3.316137075E0,1.418692768E-1,2.864873707E-1
2.383536058E0,-3.641718626E0,8.797727823E-1,3.330950022E0
2.403307465E0,-2.142088652E0,3.463045835E0,-1.143658757E0
2.423077256E0,2.596100792E-3,2.849755287E0,-9.659022093E-1
2.442848610E0,5.456393361E-1,7.850914598E-1,6.181774139E-1
2.462618402E0,1.895153672E-1,7.026270628E-1,1.535059214E0
2.482389808E0,3.691044450E-1,2.011214644E-1,2.084821701E0
2.502159600E0,5.810684562E-1,-1.277281642E0,3.618659258E0
2.521931006E0,-6.546755433E-1,-2.294342279E0,4.569748402E0
2.541700798E0,-1.917907715E0,-1.291942000E0,3.321176529E0
2.561472152E0,-1.382805467E0,-1.207950488E-1,2.069550514E0
2.581241944E0,-2.875563502E-1,1.374406274E-3,1.899124146E0
2.601013350E0,-1.200773001E0,-4.268295169E-1,1.571709991E0
2.620783142E0,-2.434073687E0,-5.447230339E-1,6.768187881E-1
2.640554548E0,-2.084668875E0,-2.777827978E-1,-4.228590131E-1
2.660324340E0,-9.784246087E-1,2.634278834E-1,-1.119224906E0
2.680095694E0,-5.758762360E-1,6.360446811E-1,-1.655548811E0
2.699865485E0,4.747810364E-1,4.503471553E-1,-1.020267606E0
2.719636892E0,6.256603003E-1,2.041756958E-1,-6.946860552E-1
2.739406683E0,-2.252499312E-1,2.371614426E-1,-1.124111652E0
2.759178090E0,-3.981196880E-1,2.444916219E-1,-1.392273664E0
2.778947881E0,-3.205420971E-1,9.433009028E-1,-1.943257809E0
2.798719288E0,-2.061609551E-2,1.541931152E0,-2.391619682E0
2.818489079E0,1.986780763E-1,9.506310225E-1,-2.269450188E0
2.838260485E0,2.725905776E-1,-7.192726433E-2,-2.230966806E0
2.858030277E0,3.727695346E-1,-5.105155706E-1,-2.764847517E0
2.877801683E0,4.839437306E-1,-4.932591692E-2,-2.899233818E0
2.897571475E0,5.511369109E-1,-2.489202656E-2,-2.441098452E0
2.917342881E0,2.414373755E-1,-3.883461356E-1,-1.841246367E0
2.937112673E0,1.430909634E-1,2.170034945E-1,-1.565143347E0
2.956884079E0,4.124746025E-1,8.516737819E-1,-1.182142138E0
2.976653871E0,1.021642014E-1,6.360446811E-1,-9.756757617E-1
2.996425277E0,-3.687990308E-1,1.006829023E0,-1.687312841E0
3.016195069E0,-4.756973088E-1,1.593242407E0,-2.139339924E0
3.035966475E0,-6.675033569E-1,1.113727212E0,-1.874232054E0
3.055736319E0,-9.228374958E-1,-2.484621257E-1,-1.558424115E0
3.075507725E0,-6.931589246E-1,-4.225535989E-1,-1.485122442E0
3.095277517E0,-1.311794519E-1,2.947338112E-2,-1.131441832E0
3.115048923E0,-1.421747059E-1,-4.016320780E-2,-9.781191945E-1
3.134818715E0,-2.582356930E-1,-3.119902313E-1,-9.396358132E-1
3.154590121E0,2.316638231E-1,-4.627167806E-2,-7.826480269E-1
3.174359913E0,1.090667725E0,9.177979827E-2,-2.750339806E-1
3.194131371E0,-3.926220834E-1,-5.489989519E-1,2.107423097E-1
3.213901163E0,-1.212989926E0,-1.110520363E0,-3.110739589E-1
3.233672569E0,1.119377613E-1,-2.246390730E-1,-1.693421364E0
3.253442360E0,8.278507590E-1,-2.924431264E-1,-3.100813389E0
3.273213767E0,1.878660798E0,-1.830098391E0,-3.471597672E0
3.292983610E0,3.016669273E0,-3.199617863E0,-2.748354435E0
3.312755017E0,3.731360435E0,-4.872728348E0,-1.541320324E0
3.332524808E0,2.997732878E0,-4.191633701E0,-4.821111858E-1
3.352296215E0,1.656923175E0,-9.785773158E-1,3.371876776E-1
3.372066006E0,1.222610831E0,-4.060607255E-1,4.898995161E-1
3.391837465E0,1.162747741E0,-2.489813328E0,8.796200752E-1
3.411607256E0,1.186570764E0,-2.535626888E0,1.253458619E0
3.431378663E0,1.262926698E0,-2.505084515E0,1.510625243E0
3.451148454E0,1.733889937E0,-2.831887960E0,9.437590241E-1
3.470919913E0,1.950129867E0,-3.591171026E0,5.259394646E-1
3.490689704E0,1.657534003E0,-3.998606205E0,6.316160560E-1
3.510461110E0,1.477334142E0,-3.867274046E0,8.283088803E-1
3.530230954E0,1.352110386E0,-2.967495918E0,9.254335761E-1
3.550002360E0,1.172521353E0,-1.899124146E0,8.985562921E-1
3.569772152E0,1.062568784E0,-1.157555580E0,7.715001106E-1
3.589543610E0,7.942541242E-1,-1.181989431E0,7.849387527E-1
3.609313402E0,4.924955964E-1,-1.221083641E0,4.868452549E-1
3.629084808E0,1.925695986E-1,-1.133121610E0,5.909947306E-2
3.648854652E0,-1.006370857E-1,-8.820634484E-1,-2.519745007E-2
3.668626058E0,-4.842491746E-1,-8.423583508E-1,4.260659590E-2
3.688395850E0,-5.911474228E-1,-6.882721782E-1,6.215370819E-2
3.708167308E0,-1.641651988E-1,-2.112004459E-1,2.498365343E-1
3.727937100E0,3.147390485E-1,-4.335488379E-1,7.018635273E-1
3.747708558E0,1.437018216E-1,-5.777087808E-1,1.373795509E0
3.767478350E0,-3.712424338E-1,3.929274976E-1,2.006022453E0
3.787249756E0,-9.643751383E-1,1.601794243E0,1.404337883E0
3.807019600E0,1.102273822E0,-4.262186885E-1,-1.115559816E0
3.826791006E0,8.107470274E-1,1.895153672E-1,-5.207473040E-2
3.846560850E0,-6.155813336E-1,-1.608971715E0,-1.193137407E0
3.866332256E0,-4.408790171E-1,7.569924593E-1,-1.150378108E0
3.886102100E0,-2.417580843E0,3.996926308E0,-2.947338112E-2
3.905873506E0,-2.355274200E0,2.602361917E0,-2.273878902E-1
3.925643350E0,-1.618592501E0,5.028799772E-1,1.417165697E-1
3.945414756E0,-2.385816574E0,1.121668339E0,1.012173891E0
3.965184600E0,-2.923362255E0,2.342141151E0,9.168817401E-1
3.984956058E0,-2.770650387E0,1.742289066E0,1.262926757E-1
4.004725850E0,-2.498823404E0,9.029849768E-1,-3.581092060E-1
4.024497308E0,-2.558686495E0,9.640696645E-1,-3.055763543E-1
4.044267152E0,-2.580677032E0,1.278656006E0,-2.786990702E-1
4.064038558E0,-2.250208616E0,1.378224134E0,-4.552339315E-1
4.083808402E0,-1.883700252E0,1.367839694E0,-3.684936166E-1
4.103579860E0,-1.820783019E0,1.388608575E0,-3.361186981E-1
4.123349756E0,-1.825669765E0,1.110673070E0,-3.788780272E-1
4.143121110E0,-1.628366113E0,5.743491650E-1,-4.662291706E-1
4.162890954E0,-1.306449533E0,4.246915579E-1,-5.401417017E-1
4.182662413E0,-1.123195410E0,5.706840754E-1,-5.083776116E-1
4.202432256E0,-1.010799527E0,4.069769979E-1,-3.800997138E-1
4.222203715E0,-7.817317843E-1,1.491994411E-1,-3.239017725E-1
4.241973610E0,-6.137487888E-1,-2.794626169E-2,-3.122956753E-1
4.261744965E0,-4.158342779E-1,1.725643501E-2,-2.689255178E-1
4.281514808E0,-1.440072358E-1,2.200577259E-1,-1.840177327E-1
4.301286267E0,3.660502136E-1,2.243336588E-1,-3.006895781E-1
4.321056110E0,1.121821046E0,-9.009997360E-3,-2.768665254E-1
4.340827569E0,2.157817841E0,-7.023216486E-1,1.244601309E-1
4.360597413E0,3.014225721E0,-6.320741773E-1,7.165238261E-1
4.380368871E0,3.351413488E0,1.192679256E-1,1.230246425E0
4.400138715E0,3.217638016E0,-2.478512824E-1,1.248571754E0
4.419910173E0,3.100966215E0,-1.023169141E-2,1.523453116E0
4.439680017E0,3.038659573E0,7.569924593E-1,1.511847019E0
4.459451475E0,2.973299026E0,-2.765611112E-1,1.342642307E0
4.479221423E0,3.127843380E0,-1.382958174E0,1.374406338E0
4.498992829E0,3.066147804E0,-2.277849436E0,8.845068216E-1
4.518762725E0,2.984294176E0,-2.109255552E0,3.933856487E-1
4.538534131E0,2.650771618E0,-1.373184681E0,6.887302548E-2
4.558303975E0,2.416817188E0,-1.853921413E0,-6.879667044E-1
4.578075433E0,1.950740695E0,-1.375627995E0,-1.485733271E0
4.597845277E0,1.339282632E0,-7.102626562E-1,-1.708692551E0
4.617616735E0,7.142331600E-1,-4.317162931E-1,-1.561478257E0
4.637386631E0,3.130592033E-2,-2.582356930E-1,-1.240783453E0
4.657158090E0,-5.612159371E-1,9.788827598E-2,-7.014053464E-1
4.676927933E0,-1.045006990E0,3.336753249E-1,-2.451024652E-1
4.696699392E0,-1.393189907E0,5.541911721E-1,1.692046970E-1
4.716469340E0,-1.444501042E0,9.329164624E-1,5.424323678E-1
4.736240798E0,-1.035233378E0,1.152821541E0,6.163448691E-1
4.756010590E0,-7.375980914E-2,5.444176197E-1,3.842229247E-1
4.775782100E0,6.299362183E-1,-8.203678727E-1,1.030804738E-1
4.795551996E0,7.783721089E-1,-1.120293856E0,-1.504211426E-1
4.815323402E0,8.400676847E-1,-2.710634768E-1,-1.791309565E-1
4.835093350E0,9.562813640E-1,-6.021426916E-1,-2.585411072E-1
4.854864756E0,5.633538961E-1,1.099066973E0,-1.025154471E0
4.874634600E0,2.151709497E-1,2.707580328E-1,-1.812536478E0
4.894406058E0,2.302588701E0,-1.426939249E0,-8.712208867E-1
4.914176006E0,-1.850714445E0,3.911407709E0,1.339588046E0
4.933947413E0,-1.313779712E0,1.158929944E0,2.877090573E-1
4.953717256E0,-1.324164152E0,8.809944391E-1,-2.994678617E-1
4.973488715E0,-2.291746140E0,1.235896707E0,1.368297935E-1
4.993258663E0,-2.689407825E0,2.380013704E0,1.936385781E-1
5.013030069E0,-2.922751427E0,3.132577419E0,5.381564498E-1
5.032799913E0,-3.033314705E0,3.213820219E0,1.260177851E0
5.052571423E0,-3.168922901E0,3.610260010E0,1.384790778E0
5.072341267E0,-3.086458445E0,3.287121773E0,8.112051487E-1
5.092112725E0,-2.533030987E0,2.844257593E0,-1.766875684E-1
5.111882673E0,-2.195843220E0,2.442320108E0,-5.651864409E-1
5.131654079E0,-2.088334084E0,2.189429283E0,-4.741701782E-1
5.151423923E0,-1.930735469E0,1.876675487E0,-2.041756958E-1
5.171195433E0,-1.718771458E0,2.013505220E0,-1.070509851E-1
5.190965277E0,-1.666238666E0,2.394674063E0,-4.107947648E-2
5.210736735E0,-1.832389116E0,2.006785870E0,-7.482878864E-3
5.230506683E0,-1.826280594E0,8.822161555E-1,-1.815743446E-1
5.250278090E0,-1.346765518E0,8.994726092E-2,-5.401417017E-1
5.270047933E0,-1.032179117E0,7.160657048E-1,-7.221741676E-1
5.289819444E0,-6.913263798E-1,1.030041218E0,-6.781931520E-1
5.309589288E0,-4.909684956E-1,7.795938253E-1,-6.775823236E-1
5.329360746E0,-3.663556576E-1,1.023321867E0,-6.965186000E-1
5.349130694E0,-3.038965166E-2,1.403879762E0,-7.740961909E-1
5.368902100E0,4.069769979E-1,1.561478257E0,-8.614473343E-1
5.388671944E0,1.216502309E0,1.394106150E0,-8.437327743E-1
5.408443454E0,2.229287148E0,7.997517586E-1,-3.129065037E-1
5.428213298E0,2.985516071E0,-3.370349705E-1,2.803788781E-1
5.447984756E0,3.130286694E0,-1.009730577E0,2.687727809E-1
5.467754704E0,3.242682695E0,-1.230857253E0,1.097997949E-1
5.487526110E0,3.755183458E0,-1.211920977E0,7.803573459E-2
5.507295954E0,3.694709539E0,-1.020114899E0,1.582094431E-1
5.527067413E0,2.778438807E0,-1.333479524E0,1.783674061E-1
5.546837360E0,2.144379377E0,-2.168507814E0,2.895416021E-1
5.566608767E0,2.471793413E0,-2.980323792E0,5.601469278E-1
5.586378610E0,2.998954535E0,-3.565515518E0,8.472451568E-1
5.606150069E0,3.083862305E0,-4.121386528E0,9.272661209E-1
5.625920017E0,2.714299679E0,-4.086568356E0,9.058864713E-1
5.645691423E0,1.829182148E0,-3.808021784E0,7.629482150E-1
5.665461267E0,1.317902923E0,-3.311403036E0,7.867712975E-1
5.685232777E0,1.227497578E0,-3.095773935E0,6.847597957E-1
5.705002673E0,1.166412830E0,-2.473931313E0,4.953971207E-1
5.724774079E0,8.681666851E-1,-1.538113356E0,4.966188073E-1
5.744543923E0,4.130854607E-1,-5.471664071E-1,6.774296165E-1
5.764315381E0,-4.627167806E-2,-2.611372061E-2,6.963658929E-1
5.784085329E0,-5.312843919E-1,2.947338112E-2,4.770717025E-1
5.803856735E0,-9.539906979E-1,-5.848862603E-2,1.618745178E-1
5.823626579E0,-1.110367656E0,-1.739387512E-1,-7.895200700E-2
5.843398038E0,-9.148964882E-1,-5.343386531E-1,-3.312319219E-1
5.863167881E0,-3.162661791E-1,-9.339854717E-1,-5.981721878E-1
5.882939392E0,4.155288339E-1,-3.797942698E-1,-3.807105422E-1
5.902709288E0,1.152363300E0,-2.290677279E-3,2.651077211E-1
5.922480694E0,1.826738715E0,-1.251626015E0,9.150491953E-1
5.942250538E0,1.983726501E0,1.386775970E0,6.218425035E-1
5.962021996E0,3.147390485E-1,2.603736520E-1,5.665608495E-2
5.981791840E0,-4.335488379E-1,-3.716394663E0,-1.946312070E0
6.001563298E0,-9.819369763E-2,-1.945548534E0,-1.433811188E0
6.021333246E0,-1.963110328E0,4.864481926E0,7.635591030E-1
6.041104652E0,-3.330186605E0,5.123481274E0,5.173876286E-1
6.060874496E0,-1.346765518E0,6.378772259E-1,-4.350759685E-1
6.080645954E0,-1.745648742E0,-8.869501948E-1,1.887518018E-1
6.100415798E0,-2.985057831E0,1.517497301E0,6.603258848E-1
6.120187256E0,-3.076074123E0,2.935884714E0,2.296785712E-1
6.139957100E0,-2.795084238E0,2.442930937E0,-3.672719002E-1
6.159728610E0,-2.524478912E0,1.243837714E0,-4.246915579E-1
6.179498506E0,-2.377264738E0,2.921377122E-1,-1.542389300E-2
6.199269913E0,-2.402309656E0,-7.177455351E-3,2.528907657E-1
6.219039756E0,-2.322288513E0,2.927485406E-1,1.349972486E-1
6.238811215E0,-2.015643358E0,5.871769190E-1,-1.742441803E-1
6.258581058E0,-1.770693541E0,5.804576278E-1,-3.324536085E-1
6.278352517E0,-1.705332875E0,5.285356045E-1,-3.165715933E-1
6.298122360E0,-1.698613524E0,4.876088202E-1,-3.006895781E-1
6.317893819E0,-1.649134874E0,5.303681493E-1,-3.654393852E-1
6.337663767E0,-1.564227104E0,2.958027720E-1,-3.898732662E-1
6.357435121E0,-1.306449533E0,3.599417508E-1,-4.240806997E-1
6.377205069E0,-8.819107413E-1,7.956285775E-2,-4.857762754E-1
6.396976475E0,-5.563291311E-1,1.620272398E-1,-5.725166202E-1
6.416746319E0,-2.429644912E-1,5.468609929E-1,-6.800256968E-1
6.436517777E0,1.039967462E-1,3.648285270E-1,-6.714738607E-1
6.456287621E0,5.193728805E-1,4.033119082E-1,-7.020162344E-1
6.476059079E0,1.295912504E0,3.312319219E-1,-7.692093849E-1
6.495828923E0,2.391772509E0,-3.101576865E-1,-4.796678126E-1
6.515600381E0,3.415552378E0,-7.261446714E-1,5.604523420E-2
6.535370225E0,3.844367266E0,-7.493568659E-1,1.007287145E0
6.555141683E0,3.125400066E0,-1.132510781E0,1.709761500E0
6.574911527E0,2.945199966E0,-1.510625243E0,1.816659689E0
6.594682985E0,2.949476004E0,-1.811772943E0,1.674332380E0
6.614452933E0,2.895721436E0,-2.239976883E0,1.431825995E0
6.634224288E0,2.797985792E0,-2.397575378E0,1.202758312E0
6.653994235E0,2.557312012E0,-2.826390266E0,1.056154966E0
6.673765642E0,2.478512764E0,-2.723157167E0,1.020725727E0
6.693535538E0,2.396659136E0,-2.361535549E0,1.244295835E0
6.713306944E0,2.277544022E0,-2.471487999E0,1.233300567E0
6.733076840E0,2.138881683E0,-2.742704153E0,7.721109390E-1
6.752848246E0,1.642262816E0,-2.762862206E0,1.116323397E-1
6.772618090E0,1.243990421E0,-2.805621386E0,-2.188360244E-1
6.792389548E0,9.170344472E-1,-2.519134045E0,-2.029540092E-1
6.812159392E0,4.479037523E-1,-1.552162886E0,-1.156028435E-1
6.831930850E0,4.046862945E-2,-2.808370292E-1,7.498150319E-2
6.851700694E0,-2.026485801E-1,8.461761475E-1,3.420744538E-1
6.871472152E0,-4.103366435E-1,1.343405843E0,4.153761268E-1
6.891241996E0,-5.483881235E-1,1.114338160E0,3.567348123E-1
6.911013454E0,-5.557183027E-1,3.006895781E-1,2.864873707E-1
6.930783298E0,-4.695888162E-1,-8.515210748E-1,3.100049868E-2
6.950554756E0,-3.038965166E-2,-1.146560311E0,-9.422318637E-2
6.970324600E0,4.521796703E-1,-4.115583301E-1,8.658760041E-2
6.990096058E0,4.454603493E-1,3.562766612E-1,5.699204803E-1
7.009865902E0,1.449235082E-1,-3.101576865E-1,9.290986657E-1
7.029637360E0,2.005106062E-1,-1.618745208E0,9.877400398E-1
7.049407204E0,-1.861557066E-1,4.454603493E-1,1.202147365E0
7.069178663E0,-2.014421463E0,2.029387236E0,3.933856487E-1
7.088948506E0,1.446791768E0,-3.468085229E-1,-7.685985565E-1
7.108719965E0,8.089144826E-1,2.481566966E-1,1.398840249E-1
7.128489860E0,-1.288124204E0,-2.044811249E-1,-9.665130973E-1
7.148261267E0,-7.163711190E-1,1.390441060E0,-9.842276573E-1
7.168031163E0,-2.727280378E0,4.235156536E0,6.584933400E-1
7.187802569E0,-2.683299303E0,2.499739647E0,5.241069198E-1
7.207572465E0,-1.661962628E0,7.569924593E-1,2.938175201E-1
7.227343871E0,-2.229439735E0,9.298622608E-1,1.089140654E0
7.247113767E0,-2.821961641E0,2.460645437E0,1.378682256E0
7.266885121E0,-2.772483110E0,2.706816912E0,6.102364063E-1
7.286655069E0,-2.453620672E0,1.982352018E0,-3.275668323E-1
7.306426423E0,-2.135369301E0,1.625006437E0,-5.792359114E-1
7.326196267E0,-2.004647970E0,1.174201131E0,-4.680617154E-1
7.345967725E0,-1.847049356E0,1.330578089E0,-2.047865391E-1
7.365737569E0,-1.563616276E0,1.634169102E0,-7.223268598E-2
7.385509027E0,-1.311947227E0,1.384943485E0,-3.721587062E-1
7.405278871E0,-1.288735032E0,8.449544907E-1,-4.790569544E-1
7.425050329E0,-1.601488829E0,6.641436815E-1,-4.081986845E-1
7.444820173E0,-2.022362471E0,8.583931327E-1,-3.245126009E-1
7.464591631E0,-2.001593828E0,3.819322586E-1,-2.988570333E-1
7.484361475E0,-1.435338378E0,-1.226275861E-1,-4.210264683E-1
7.504132933E0,-9.546015263E-1,3.006895781E-1,-5.841227174E-1
7.523902777E0,-7.536327839E-1,8.040276766E-1,-5.615213513E-1
7.543674235E0,-5.844281316E-1,1.092347622E0,-4.851654470E-1
7.563444079E0,-4.023956358E-1,8.425110579E-1,-4.216373265E-1
7.583215538E0,-1.788255423E-1,7.105680704E-1,-3.746020794E-1
7.602985381E0,3.080197275E-1,7.453863621E-1,-3.739912212E-1
7.622756840E0,1.101052165E0,5.938962698E-1,-2.255553454E-1
7.642526735E0,1.951962471E0,3.929274976E-1,-1.985253533E-3
7.662298142E0,2.672762156E0,3.497100621E-2,3.506263196E-1
7.682068038E0,3.001398087E0,-1.159082651E-1,6.016845703E-1
7.701839392E0,3.195036650E0,-6.088619828E-1,5.894675851E-1
7.721609235E0,3.225579023E0,-6.699467301E-1,5.925218463E-1
7.741380694E0,2.801651001E0,-7.925742865E-2,5.803049207E-1
7.761150538E0,2.389328957E0,-6.864396334E-1,5.796940327E-1
7.780921996E0,2.204242229E0,-1.976701736E0,6.090146899E-1
7.800691840E0,2.497448921E0,-2.556395769E0,3.854446113E-1
7.820463298E0,2.855405569E0,-2.328549862E0,1.966928244E-1
7.840233142E0,2.923820496E0,-1.849645495E0,2.565558553E-1
7.860004600E0,2.803483486E0,-1.693268657E0,3.854446113E-1
7.879774496E0,2.344126463E0,-1.888128877E0,3.836120665E-1
7.899545902E0,1.592784286E0,-1.864916682E0,2.611372061E-2
7.919315798E0,1.036302328E0,-1.701820493E0,-3.440597057E-1
7.939087152E0,6.171084642E-1,-1.284000993E0,-4.057552814E-1
7.958856996E0,1.858502775E-1,-6.113054156E-1,-3.452814221E-1
7.978628454E0,-3.926220834E-1,-4.581354442E-4,-1.046075895E-1
7.998398298E0,-9.839222431E-1,3.287885487E-1,1.478250325E-1
8.018169756E0,-1.399909258E0,4.833329022E-1,2.602209449E-1
8.037939600E0,-1.461604834E0,6.158867478E-1,3.445178568E-1
8.057711006E0,-1.054780483E0,4.851654470E-1,4.398100376E-1
8.077480850E0,-2.307475507E-1,-2.936648130E-1,3.457395434E-1
8.097252308E0,5.303681493E-1,-1.246128440E0,-3.318427801E-1
8.117022152E0,1.451067686E0,-5.899257660E-1,-6.201626658E-1
8.136793610E0,1.581178188E0,6.734590977E-2,-2.432699203E-1
8.156563454E0,7.191199064E-1,-7.255338430E-1,-2.267770469E-1
8.176334913E0,7.924215794E-1,-1.375627995E0,-3.837648034E-1
8.196104808E0,3.752129376E-1,3.636068404E-1,-1.061805248E0
8.215876163E0,-2.655658424E-1,3.831539452E-1,-1.970135093E0
8.235646006E0,1.247655511E0,-6.198572516E-1,-1.125333309E0
8.255417465E0,-1.336991906E0,1.309809208E0,6.682668924E-1
8.275187308E0,-1.057223916E0,7.753179073E-1,2.785463631E-1
8.294958767E0,-1.820783019E0,2.288386583E0,4.434750974E-1
8.314728558E0,-2.874494553E0,2.623130798E0,7.543963790E-1
8.334500017E0,-2.387649298E0,1.694032192E0,2.870981991E-1
8.354269860E0,-2.167744160E0,9.481876493E-1,2.901524603E-1
8.374041319E0,-2.451177359E0,1.188250661E0,8.020424247E-1
8.393811163E0,-2.778591394E0,2.420940399E0,9.907942414E-1
8.413582621E0,-2.884878874E0,2.778285980E0,5.754181147E-1
8.433352413E0,-2.671693087E0,2.321983099E0,1.140757278E-1
8.453123871E0,-2.291746140E0,1.662268162E0,3.405473381E-2
8.472893715E0,-2.099329233E0,1.238340139E0,2.241809368E-1
8.492665173E0,-2.054737568E0,1.265828252E0,2.425063550E-1
8.512435017E0,-1.851936221E0,1.461910248E0,-6.261184346E-3
8.532206423E0,-1.718771458E0,1.061805248E0,-1.742441803E-1
8.551976267E0,-1.901414752E0,5.285356045E-1,-1.540862173E-1
8.571747725E0,-1.929513812E0,2.499892414E-1,-2.622061968E-1
8.591517569E0,-1.648524046E0,3.055763543E-1,-4.185830951E-1
8.611289027E0,-1.495201349E0,1.571404636E-1,-5.664080977E-1
8.631058819E0,-1.270409584E0,2.145601064E-1,-6.592568755E-1
8.650830277E0,-7.908945084E-1,4.112529159E-1,-4.515688419E-1
8.670600121E0,-4.787515402E-1,2.774773538E-1,-2.725905776E-1
8.690371579E0,-2.924431264E-1,5.230379701E-1,-4.045335948E-1
8.710141423E0,-6.154286116E-2,4.979932308E-1,-5.303681493E-1
8.729912829E0,1.614163816E-1,7.551599145E-1,-5.719057322E-1
8.749682673E0,8.345700502E-1,1.110062122E0,-5.535803437E-1
8.769454131E0,1.860946178E0,6.262711287E-1,-6.036698222E-1
8.789223975E0,3.056985140E0,1.786728203E-2,-3.978142738E-1
8.808995433E0,3.511455536E0,-8.619054556E-1,3.225273490E-1
8.828765329E0,3.306210756E0,-1.231468081E0,7.244648337E-1
8.848536683E0,3.076532125E0,-1.090973258E0,9.119949341E-1
8.868306527E0,3.064315319E0,-9.022213817E-1,9.168817401E-1
8.888077985E0,2.994678736E0,-1.372573733E0,8.472451568E-1
8.907847829E0,2.638554811E0,-2.473931313E0,7.806627750E-1
8.927619235E0,2.435142517E0,-3.186179399E0,6.426113248E-1
8.947389079E0,2.587854385E0,-2.880144835E0,4.202629030E-1
8.967160538E0,2.778438807E0,-2.272962570E0,3.805578351E-1
8.986930381E0,2.899997473E0,-2.304115772E0,6.212316751E-1
9.006701840E0,2.795542479E0,-2.493478537E0,5.906893015E-1
9.026471631E0,2.047865391E0,-2.064052820E0,1.673721522E-1
9.046243090E0,1.350277901E0,-1.850867152E0,-1.950129867E-1
9.066012933E0,8.938222528E-1,-1.652341843E0,-2.389939874E-1
9.085784392E0,3.348970115E-1,-9.755230546E-1,-2.573194206E-1
9.105554288E0,-2.044811249E-1,-2.197522968E-1,-1.290414780E-1
9.125325642E0,-7.004891038E-1,2.725905776E-1,1.275143623E-1
9.145095485E0,-1.267355323E0,5.957288146E-1,2.822114229E-1
9.164866944E0,-1.701056957E0,7.160657048E-1,3.011476994E-1
9.184636840E0,-1.511083364E0,7.282826304E-1,3.958290219E-1
9.204408194E0,-5.923691392E-1,2.328855246E-1,4.996730685E-1
9.224178038E0,2.047865391E-1,-1.279724956E0,-1.956238300E-1
9.243949496E0,1.374100924E0,-7.646280527E-1,-8.504521251E-1
9.263719340E0,1.727781415E0,7.637118101E-1,-3.623851240E-1
9.283490746E0,9.440644383E-1,-8.215895891E-1,-1.357607991E-1
9.303260590E0,1.344780207E0,-2.183168173E0,-5.138752460E-1
9.323032048E0,8.919897079E-1,6.336013079E-1,-1.066081166E0
9.342801892E0,6.519267559E-1,-3.474193811E-1,-8.315158486E-1
9.362573298E0,-4.566083103E-2,4.045335948E-1,1.018587798E-1
9.382343142E0,-9.148964882E-1,-1.634016447E-2,-1.156028435E-1
9.402114600E0,-9.155073166E-1,8.907679915E-1,-3.813214004E-1
9.421884444E0,-2.591672182E0,3.124636412E0,3.200839758E-1
9.441655850E0,-2.489660740E0,2.321983099E0,2.137965411E-1
9.461425694E0,-2.307017326E0,1.857128382E0,3.921639323E-1
9.481197152E0,-2.602056503E0,1.722741961E0,9.535325766E-1
9.500966996E0,-2.801803589E0,2.378180981E0,1.169772506E0
9.520738402E0,-2.851282358E0,2.613968134E0,8.283088803E-1
9.540508246E0,-2.702846527E0,2.375126839E0,2.535016239E-1
9.560279704E0,-2.532419920E0,2.064205647E0,-1.363716573E-1
9.580049600E0,-2.361993551E0,1.675706744E0,-2.396048307E-1
9.599820954E0,-2.133536816E0,1.288429618E0,-1.498102844E-1
9.619590798E0,-1.974105597E0,1.259108901E0,9.819369763E-2
9.639362256E0,-1.787797213E0,1.569419265E0,8.842013776E-2
9.659132048E0,-1.647302389E0,1.406323075E0,-9.727742523E-2
9.678903506E0,-1.774969459E0,6.873558760E-1,-1.809635013E-1
9.698673350E0,-1.895306349E0,3.520007432E-1,-2.347180545E-1
9.718444808E0,-1.873926640E0,3.843756318E-1,-3.006895781E-1
9.738214600E0,-1.789018869E0,2.170034945E-1,-4.619532526E-1
9.757986058E0,-1.559951186E0,3.037438095E-1,-6.122216582E-1
9.777755902E0,-1.021183848E0,3.318427801E-1,-4.381301999E-1
9.797527308E0,-6.662816405E-1,1.546970755E-1,-2.457133085E-1
9.817297152E0,-5.679352283E-1,6.995728016E-1,-3.813214004E-1
9.837068610E0,-3.064926267E-1,5.914528370E-1,-6.336013079E-1
9.856838402E0,-1.476723254E-1,8.388460279E-1,-6.525375843E-1
9.876609860E0,3.807105422E-1,1.023932695E0,-5.859552622E-1
9.896379704E0,1.268424392E0,6.006155610E-1,-3.843756318E-1
9.916151110E0,2.297702074E0,-1.470614821E-1,-1.913478971E-1
9.935920954E0,3.088749170E0,-6.076403260E-1,2.938175201E-1
9.955692413E0,3.174878597E0,-7.646280527E-1,7.238540053E-1
9.975462204E0,3.384399176E0,-9.755230546E-1,7.440119386E-1
9.995233663E0,3.498627663E0,-9.040539265E-1,7.427902818E-1
1.001500351E1,3.221913815E0,-7.084301114E-1,6.694886088E-1
1.003477491E1,2.868233204E0,-1.339588046E0,6.792621613E-1
1.005454476E1,2.511498451E0,-2.521577597E0,6.676560640E-1
1.007431622E1,2.550592661E0,-3.313235521E0,4.532486796E-1
1.009408601E1,2.852962017E0,-2.778133392E0,3.445178568E-1
1.011385746E1,3.063704491E0,-2.035953999E0,5.448757410E-1
1.013362731E1,3.012393236E0,-2.136132956E0,6.835380793E-1
1.015339872E1,2.432088375E0,-2.213099718E0,5.515950918E-1
1.017316856E1,1.630656719E0,-2.060387850E0,1.575985998E-1
1.019293996E1,1.243990421E0,-2.032899618E0,-3.924693540E-2
1.021270981E1,8.486195803E-1,-1.699377060E0,-6.429167092E-2
1.023248127E1,2.383831441E-1,-8.716790676E-1,-4.046862945E-2
1.025225106E1,-4.286620617E-1,-1.947075576E-1,1.655396074E-1
1.027202252E1,-9.906415343E-1,2.151709497E-1,4.526378214E-1
1.029179241E1,-1.349819779E0,4.191939235E-1,5.467082858E-1
1.031156377E1,-1.291789293E0,6.734590977E-2,6.707102656E-1
1.033133361E1,-7.322531343E-1,-8.735115528E-1,6.407787800E-1
1.035110502E1,1.638597846E-1,-1.776343822E0,2.412846684E-1
1.037087486E1,8.547280431E-1,-1.378071427E0,-3.458922505E-1
1.039064627E1,1.311794519E0,2.683146596E-1,-3.049654961E-1
1.041041611E1,1.099219680E0,4.161396921E-1,-4.474456236E-2
1.043018757E1,1.053406119E0,-1.164885759E0,-6.794148684E-1
1.044995736E1,1.321568012E0,-9.455915689E-1,-2.179655790E0
1.046972882E1,1.259872466E-1,-8.680139780E-1,-2.276780367E0
1.048949861E1,-7.742489129E-2,-7.131642103E-2,-6.036698222E-1
1.050927007E1,-1.241699815E0,1.525438309E0,3.634541333E-1
1.052903986E1,-1.976549029E0,2.169271231E0,6.762079000E-1
1.054881132E1,-2.264868975E0,1.861404300E0,6.646018028E-1
1.056858111E1,-2.430408478E0,1.398382068E0,8.099834919E-1
1.058835257E1,-2.725447655E0,1.684869409E0,8.405258060E-1
1.060812247E1,-2.652146101E0,2.050766945E0,5.748072863E-1
1.062789382E1,-2.751714230E0,2.440487623E0,4.263713956E-1
1.064766366E1,-3.073019743E0,2.924889326E0,3.500154912E-1
1.066743507E1,-3.015600204E0,2.791113853E0,2.113531530E-1
1.068720491E1,-2.579455376E0,2.003731728E0,1.966928244E-1
1.070697632E1,-2.298465490E0,1.379445791E0,3.035911024E-1
1.072674616E1,-2.241656780E0,1.257887244E0,3.078670204E-1
1.074651757E1,-2.018697500E0,1.653716207E0,8.108997345E-2
1.076628741E1,-1.738929391E0,1.685480356E0,-1.143811494E-1
1.078605887E1,-1.800014138E0,1.259719729E0,-1.589729935E-1
1.080582866E1,-1.862931371E0,1.023932695E0,-2.756448388E-1
1.082560012E1,-1.668681979E0,7.710419297E-1,-3.556658030E-1
1.084536991E1,-1.537960649E0,4.454603493E-1,-4.191939235E-1
1.086514137E1,-1.428008199E0,-2.244863659E-2,-6.384881139E-1
1.088491116E1,-1.204438090E0,1.827960461E-1,-8.040276766E-1
1.090468262E1,-7.456917763E-1,2.683146596E-1,-6.061131954E-1
1.092445246E1,-3.614688516E-1,1.009425074E-1,-4.430169761E-1
1.094422387E1,-1.511846948E-2,2.542651594E-1,-6.794148684E-1
1.096399372E1,5.340332389E-1,4.808894992E-1,-7.905890942E-1
1.098376512E1,1.280641317E0,7.899782062E-1,-6.965186000E-1
1.100353496E1,2.478512764E0,7.747070193E-1,-5.254813433E-1
1.102330637E1,3.560934067E0,-1.695101149E-2,-3.067980409E-1
1.104307622E1,4.124135494E0,-5.948125124E-1,2.486148328E-1
1.106284767E1,3.648896217E0,-1.293163657E0,7.128587365E-1
1.108261746E1,3.394783735E0,-1.465422630E0,6.957550049E-1
1.110238892E1,3.686157703E0,-1.861862421E0,5.247178078E-1
1.112215872E1,3.376458168E0,-2.366422176E0,4.599680007E-1
1.114193017E1,2.850518703E0,-2.553952456E0,6.688777208E-1
1.116169996E1,2.523715496E0,-2.933899403E0,8.295305967E-1
1.118147142E1,2.364895105E0,-3.404251814E0,7.941014171E-1
1.120124127E1,2.531656504E0,-3.352329731E0,9.278770089E-1
1.122101267E1,2.752172232E0,-3.267421961E0,1.174048424E0
1.124078252E1,2.546927691E0,-3.313235521E0,9.596410394E-1
1.126055392E1,1.528645277E0,-2.742704153E0,4.636330605E-1
1.128032377E1,8.064711094E-1,-2.461103678E0,2.046338320E-1
1.130009517E1,4.949389994E-1,-2.125137568E0,1.575985998E-1
1.131986502E1,1.601946950E-1,-1.038440347E0,2.858765125E-1
1.133963648E1,-9.452861547E-2,3.863608837E-2,5.131117105E-1
1.135940627E1,-2.777827978E-1,8.009734750E-1,6.291726828E-1
1.137917767E1,-6.119162440E-1,8.809944391E-1,5.100574493E-1
1.139894752E1,-9.344435930E-1,6.232169271E-1,3.176405728E-1
1.141871898E1,-1.018740535E0,9.177979827E-2,1.899735034E-1
1.143848877E1,-6.864396334E-1,-6.589514613E-1,-2.011214644E-1
1.145826022E1,1.565296054E-1,-1.279724956E0,-6.873558760E-1
1.147803002E1,1.036302328E0,-8.564078808E-1,-5.786250830E-1
1.149780148E1,1.187181592E0,-3.981196880E-1,9.452861547E-2
1.151757127E1,7.496622801E-1,-1.088529825E0,5.980194807E-1
1.153734272E1,6.085565686E-1,-4.726430774E-1,1.029888511E0
1.155711252E1,-1.611109674E-1,1.300035715E0,5.705313683E-1
1.157688398E1,1.112047434E0,-7.652388811E-1,-8.480086923E-1
1.159665377E1,-4.170559645E-1,2.603736520E-1,7.843278646E-1
1.161642522E1,-5.343386531E-1,-1.467255116E0,-4.662291706E-1
1.163619502E1,-1.400520086E0,2.184542418E0,-4.277457893E-1
1.165596648E1,-2.841508627E0,3.656073570E0,-5.512896553E-2
1.167573632E1,-2.231883287E0,1.871177912E0,1.165191159E-1
1.169550772E1,-2.114600420E0,7.040014863E-2,7.195780873E-1
1.171527752E1,-2.693072796E0,1.305533290E0,1.162442327E0
1.173504898E1,-2.983225346E0,2.838149071E0,1.204590797E0
1.175481877E1,-2.975284338E0,2.339086771E0,6.071822047E-1
1.177459022E1,-2.810966492E0,1.736791492E0,6.581879407E-2
1.179436012E1,-2.363215446E0,1.222458124E0,-2.451024652E-1
1.181413148E1,-2.015032291E0,6.268820167E-1,-5.566345453E-1
1.183390127E1,-1.903858185E0,7.588250041E-1,-3.373403847E-1
1.185367273E1,-1.693115830E0,8.406785131E-1,-8.994726092E-2
1.187344252E1,-1.395633221E0,8.761076927E-1,-3.202366829E-1
1.189321398E1,-1.316833973E0,9.194778204E-1,-4.344651103E-1
1.191298377E1,-1.523300409E0,8.425110579E-1,-3.605526090E-1
1.193275523E1,-1.994263530E0,8.748859763E-1,-3.208475113E-1
1.195252502E1,-2.303963184E0,6.867450476E-1,-3.892624080E-1
1.197229648E1,-1.897138834E0,8.811471611E-2,-5.291464329E-1
1.199206627E1,-1.186723471E0,-2.038702667E-1,-5.450284481E-1
1.201183773E1,-9.814788103E-1,6.788040400E-1,-5.480827093E-1
1.203160752E1,-6.284091473E-1,1.077687263E0,-4.668400288E-1
1.205137898E1,-3.272614181E-1,9.439117312E-1,-3.397837877E-1
1.207114877E1,2.133384049E-1,5.902311802E-1,-1.540862173E-1
1.209092023E1,1.119377613E0,-1.690519750E-1,-8.704573847E-3
1.211069002E1,2.163315535E0,-4.042281806E-1,2.052446753E-1
1.213046148E1,2.917711973E0,-4.317162931E-1,6.145123243E-1
1.215023127E1,2.984294176E0,-3.724641204E-1,1.095860004E0
1.217000273E1,3.037437916E0,-2.814478874E-1,1.172826767E0
1.218977252E1,3.055152655E0,-4.879142344E-1,1.298661232E0
1.220954392E1,2.862735748E0,-5.856497884E-1,1.213753462E0
1.222931377E1,2.741787910E0,-8.698465228E-1,1.256512761E0
1.224908517E1,2.646495819E0,-1.425106645E0,1.035996914E0
1.226885502E1,2.609234095E0,-2.446443319E0,3.603998721E-1
1.228862648E1,2.851740360E0,-2.478207350E0,1.618745178E-1
1.230839627E1,3.297658920E0,-1.413500547E0,2.028012872E-1
1.232816650E1,3.333088160E0,-1.399451017E0,-8.383878320E-2
1.234793630E1,2.694141865E0,-1.568655729E0,-5.926745534E-1
1.236770776E1,1.794974685E0,-1.700598717E0,-9.390249252E-1
1.238747755E1,1.196955204E0,-1.495964885E0,-8.535063267E-1
1.240724900E1,5.541911721E-1,-1.176491857E0,-7.631009221E-1
1.242701890E1,-9.819369763E-2,-5.709894896E-1,-5.010474920E-1
1.244679026E1,-7.047650218E-1,-5.848862603E-2,-2.764083818E-2
1.246656010E1,-1.394411564E0,4.320217371E-1,4.593571424E-1
1.248633150E1,-2.029692650E0,8.608365059E-1,8.191461563E-1
1.250610135E1,-2.136590958E0,1.096012712E0,1.065928459E0
1.252587276E1,-1.272853017E0,9.200887084E-1,1.064095974E0
1.254564260E1,2.560977042E-1,-3.620797098E-1,2.944283783E-1
1.256541406E1,1.660588264E0,-6.687250137E-1,-2.988570333E-1
1.258518385E1,1.868276358E0,2.463241518E-1,9.636115283E-2
1.260495531E1,1.229330063E0,-1.360967636E0,7.192726433E-2
1.262472510E1,1.725338101E0,-1.475806952E0,-7.313368917E-1
1.264449656E1,7.789829373E-1,8.260182142E-1,-1.517497301E0
1.266426645E1,9.465078115E-1,-1.218640327E0,-1.099677801E0
1.268403781E1,-1.409530044E-1,8.773293495E-1,-1.211004704E-1
1.270380828E1,-8.758022785E-1,1.177255392E0,-2.641914412E-2
1.272357974E1,-1.151905179E0,1.524827480E0,-4.413371533E-2
1.274334953E1,-2.354052544E0,2.304268599E0,4.373666346E-1
1.276312098E1,-2.513483763E0,1.484511495E0,6.713211536E-1
1.278289078E1,-2.536085129E0,1.599350810E0,1.094638348E0
1.280266224E1,-2.550134659E0,1.450304151E0,1.488023877E0
1.282243208E1,-2.720561028E0,2.072757483E0,1.555217147E0
1.284220348E1,-2.980170965E0,2.725142241E0,1.214364409E0
1.286197333E1,-2.881824732E0,2.786837816E0,4.947862923E-1
1.288174479E1,-2.665584803E0,2.405669212E0,-3.191677108E-2
1.290151463E1,-2.405974627E0,2.024500608E0,-8.261708915E-2
1.292128604E1,-2.128649950E0,1.629282355E0,8.170082420E-2
1.294105588E1,-1.982046604E0,1.860182643E0,1.152974218E-1
1.296082734E1,-1.780467033E0,2.034884930E0,-7.223268598E-2
1.298059713E1,-1.636307120E0,1.318361044E0,-1.846285909E-1
1.300036859E1,-1.803068399E0,9.463551044E-1,-1.302631795E-1
1.302013843E1,-2.208671093E0,1.540709496E0,-1.003316641E-1
1.303990984E1,-2.132925987E0,9.390249252E-1,-2.328855246E-1
1.305967968E1,-1.225206852E0,-1.110214889E-1,-5.554128885E-1
1.307945114E1,-7.847860456E-1,8.260182142E-1,-6.690304875E-1
1.309922098E1,-8.153283596E-1,1.920656443E0,-3.642176688E-1
1.311899239E1,-5.202891231E-1,1.516886473E0,-2.768665254E-1
1.313876224E1,-2.356343269E-1,1.180309653E0,-3.794888556E-1
1.315853369E1,7.406523079E-2,1.087460876E0,-5.150969625E-1
1.317830354E1,9.097042680E-1,1.391051888E0,-2.640387416E-1
1.319807494E1,1.804137349E0,1.108229637E0,2.977880463E-2
1.321784479E1,2.471182585E0,-2.912214398E-1,1.122431830E-1
1.323761625E1,2.887169600E0,-6.723901033E-1,5.360184610E-2
1.325738609E1,3.311097622E0,-6.259657145E-1,-1.094943732E-1
1.327715750E1,3.645231009E0,-4.115583301E-1,1.441599578E-1
1.329692734E1,3.433877945E0,-1.030804738E-1,4.092676640E-1
1.331669880E1,2.675816536E0,-6.730009913E-1,5.412106514E-1
1.333646864E1,1.956238389E0,-2.243642092E0,4.679090083E-1
1.335624005E1,2.110171795E0,-3.316900730E0,2.064663768E-1
1.337600989E1,2.882282734E0,-2.607096195E0,2.657185495E-1
1.339578135E1,3.402113914E0,-2.114142418E0,3.475720882E-1
1.341555119E1,3.460755110E0,-2.350540161E0,2.852656841E-1
1.343532265E1,2.914046764E0,-2.455605984E0,4.810422286E-2
1.345509244E1,1.880493283E0,-2.600376844E0,-4.546230733E-1
1.347486390E1,1.327676535E0,-2.330382347E0,-5.450284481E-1
1.349463375E1,8.877137899E-1,-1.910730243E0,-5.297572613E-1
1.351440520E1,3.684936166E-1,-1.144116879E0,-4.943281412E-1
1.353417500E1,-2.362451702E-1,-4.970769584E-1,-2.970244884E-1
1.355394645E1,-7.695148587E-1,-6.398624927E-2,-1.481304597E-2
1.357371630E1,-1.200773001E0,2.554868758E-1,1.838650256E-1
1.359348776E1,-1.396854997E0,3.196258247E-1,4.269822240E-1
1.361325765E1,-1.238645554E0,-1.403421611E-1,5.143333673E-1
1.363302901E1,-5.276193023E-1,-6.479562521E-1,2.644968629E-1
1.365279885E1,2.738122940E-1,-1.026834249E0,-2.188360244E-1
1.367257031E1,1.060736299E0,-4.683671296E-1,-3.287885487E-1
1.369234020E1,1.338060975E0,4.570664763E-1,-9.483403713E-2
1.371211156E1,1.641041160E0,-1.117850542E0,-5.315898061E-1
1.373188140E1,2.762556791E0,-1.331036210E0,-1.998844981E0
1.375165286E1,5.987830162E-1,-7.579087615E-1,-1.386165142E0
1.377142276E1,-1.315612316E0,-4.066715539E-1,-8.889354467E-1
1.379119411E1,-2.814478874E-1,-3.174878657E-1,-2.102841735E-1
1.381096395E1,-2.013810635E0,2.996358633E0,8.515210748E-1
1.383073541E1,-2.630155563E0,2.361077309E0,5.540384650E-1
1.385050526E1,-2.188513041E0,5.657972693E-1,2.003578991E-1
1.387027666E1,-2.534863472E0,5.059342384E-1,9.510892034E-1
1.389004651E1,-2.972840786E0,1.823531747E0,1.207034230E0
1.390981796E1,-3.055916071E0,3.114252090E0,8.124268651E-1
1.392958781E1,-2.912977934E0,2.821656227E0,2.968717813E-1
1.394935921E1,-2.761487722E0,2.017781258E0,1.006370857E-1
1.396912906E1,-2.501266718E0,1.371504784E0,1.049130186E-1
1.398890052E1,-2.186680555E0,7.527165413E-1,1.740914732E-1
1.400867036E1,-1.962499499E0,6.537593007E-1,2.082989216E-1
1.402844177E1,-1.718771458E0,8.846595287E-1,-3.313846514E-2
1.404821161E1,-1.571557283E0,8.009734750E-1,-2.756448388E-1
1.406798307E1,-1.666849494E0,5.218162537E-1,-2.701472044E-1
1.408775291E1,-1.855601311E0,6.366555691E-1,-2.567085624E-1
1.410752432E1,-1.945395827E0,9.152019024E-1,-3.037438095E-1
1.412729416E1,-1.847660303E0,5.804576278E-1,-3.868190348E-1
1.414706562E1,-1.638750434E0,3.239017725E-1,-5.102101564E-1
1.416683552E1,-1.285680771E0,6.024481058E-1,-5.352548957E-1
1.418660687E1,-7.017107606E-1,3.483356535E-1,-4.967715442E-1
1.420637671E1,-2.716743052E-1,3.581092060E-1,-5.187620521E-1
1.422614817E1,4.718795046E-2,4.876088202E-1,-6.177192926E-1
1.424591796E1,6.427640319E-1,1.485885978E-1,-5.059342384E-1
1.426568942E1,1.566517830E0,-2.924431264E-1,-2.206685692E-1
1.428545927E1,2.754615784E0,-1.164885759E0,9.009997360E-3
1.430523073E1,3.496184349E0,-1.493521571E0,3.103103936E-1
1.432500052E1,3.407611370E0,-9.040539265E-1,5.583143830E-1
1.434477198E1,3.271392584E0,-5.770979524E-1,5.454866290E-1
1.436454182E1,3.222524643E0,-1.026834249E0,6.065713167E-1
1.438431323E1,3.153498888E0,-1.359135151E0,6.652126908E-1
1.440408307E1,2.976353168E0,-1.871636033E0,9.034430981E-1
1.442385453E1,2.834025860E0,-2.794015408E0,9.724688530E-1
1.444362432E1,2.820587158E0,-3.108601809E0,6.981984377E-1
1.446339578E1,2.834025860E0,-2.684062958E0,6.187883019E-1
1.448316562E1,2.780882120E0,-2.321219683E0,8.820634484E-1
1.450293708E1,2.491951466E0,-2.354205370E0,9.394831061E-1
1.452270687E1,1.914089918E0,-2.349318504E0,4.550811946E-1
1.454247833E1,1.394258857E0,-2.043895006E0,3.710897267E-2
1.456224817E1,9.654440880E-1,-1.881409526E0,-3.924693540E-2
1.458201958E1,4.350759685E-1,-1.433658481E0,1.679830020E-3
1.460178942E1,-1.360662282E-1,-7.652388811E-1,1.704263836E-1
1.462156088E1,-5.954233408E-1,-1.556133330E-1,4.049917459E-1
1.464133067E1,-9.710944295E-1,3.678827584E-1,5.418215394E-1
1.466110213E1,-1.209324837E0,7.111788988E-1,5.027272701E-1
1.468087198E1,-1.153126955E0,5.963396430E-1,4.178195298E-1
1.470064338E1,-6.778877378E-1,-2.087570578E-1,3.762819171E-1
1.472041323E1,1.516428292E-1,-1.759850979E0,-4.234698713E-1
1.474018468E1,1.545748949E0,-9.376505613E-1,-9.060391784E-1
1.475995448E1,1.802304864E0,5.566345453E-1,-2.279987335E-1
1.477972593E1,7.850914598E-1,-9.229902029E-1,1.753131598E-1
1.479949578E1,4.198047817E-1,-1.891183138E0,6.395570636E-1
1.481926718E1,-4.932591692E-2,9.011524320E-1,1.577207565E0
1.483903703E1,-8.672503829E-1,2.144837379E0,4.782933891E-1
1.485880843E1,1.301410079E0,1.406475753E-1,-4.045335948E-1
1.487857828E1,-4.158342779E-1,-2.433004618E0,-6.067240238E-1
1.489834974E1,-1.202605486E0,1.036760569E0,-7.692093849E-1
1.491811953E1,-2.288691998E0,4.064119339E0,2.852656841E-1
1.493789099E1,-2.842730522E0,3.707995653E0,6.206207871E-1
1.495766083E1,-2.236769915E0,8.999307156E-1,4.453076422E-1
1.497743224E1,-2.093220949E0,-1.018587798E-1,5.271611810E-1
1.499720208E1,-2.657032967E0,1.717855215E0,9.077190161E-1
1.501697354E1,-2.718117476E0,2.464921474E0,5.705313683E-1
1.503674333E1,-2.540360928E0,2.156443596E0,-1.284306347E-1
1.505651479E1,-2.305795670E0,1.950587988E0,-4.631749392E-1
1.507628468E1,-2.114600420E0,1.411209822E0,-4.766135812E-1
1.509605604E1,-1.876370072E0,1.061805248E0,-1.528645307E-1
1.511582588E1,-1.563616276E0,9.457442760E-1,-3.008422814E-2
1.513559729E1,-1.449387789E0,8.419002295E-1,-2.493783981E-1
1.515536713E1,-1.706554532E0,3.471139669E-1,-3.727695346E-1
1.517513859E1,-2.058402538E0,3.904841244E-1,-4.430169761E-1
1.519490838E1,-2.305795670E0,5.871769190E-1,-5.364766121E-1
1.521467984E1,-2.162246466E0,4.124746025E-1,-7.038487792E-1
1.523444968E1,-1.240478039E0,-3.022166789E-1,-7.734853625E-1
1.525422109E1,-5.862606764E-1,-2.307475507E-1,-6.103891134E-1
1.527399093E1,-4.818057716E-1,6.739172339E-1,-3.752129376E-1
1.529376234E1,-4.286620617E-1,5.205945969E-1,-4.259132445E-1
1.531353218E1,-5.343386531E-1,4.686725736E-1,-4.637857676E-1
1.533330364E1,-1.195733473E-1,6.885775924E-1,-4.259132445E-1
1.535307354E1,6.232169271E-1,3.910949528E-1,-3.935383558E-1
1.537284489E1,1.541473031E0,1.375933439E-1,-3.813214004E-1
1.539261474E1,2.710023880E0,-4.005630910E-1,2.611372061E-2
1.541238614E1,3.245126009E0,-5.887040496E-1,7.898254991E-1
1.543215599E1,3.033162117E0,-3.907895386E-1,1.407392025E0
1.545192744E1,2.846242905E0,-3.266505599E-1,1.666391373E0
1.547169724E1,2.623283625E0,-1.165191159E-1,1.634016395E0
1.549146869E1,2.400935173E0,-7.609629631E-1,1.604695797E0
1.551123854E1,2.438807726E0,-2.160566807E0,1.475196123E0
1.553100994E1,2.506000996E0,-3.455562830E0,7.525638342E-1
1.555077979E1,2.840134382E0,-3.288801670E0,2.834331393E-1
1.557055125E1,3.110739708E0,-2.113531590E0,3.738385141E-1
1.559032114E1,2.982461691E0,-2.254637241E0,3.072561622E-1
1.561009250E1,2.670318842E0,-1.869192600E0,-5.635065958E-2
1.562986234E1,1.954405785E0,-1.486802220E0,-6.134433746E-1
1.564963375E1,1.293469071E0,-1.517344594E0,-7.124006152E-1
1.566940359E1,8.247964978E-1,-1.470920205E0,-6.427640319E-1
1.568917505E1,2.182251811E-1,-1.067761064E0,-5.108210444E-1
1.570894484E1,-3.920112252E-1,-4.671454430E-1,-2.133384049E-1
1.572871630E1,-9.014578462E-1,1.748550236E-1,1.067455560E-1
1.574848614E1,-1.380362034E0,7.160657048E-1,4.019374847E-1
1.576825755E1,-1.688839912E0,1.215127945E0,6.499415040E-1
1.578802739E1,-1.577665806E0,1.507112861E0,9.095515609E-1
1.580779885E1,-8.672503829E-1,8.895463347E-1,7.262973785E-1
1.582756864E1,7.711946964E-2,-6.784985662E-1,3.894151375E-2
1.584734010E1,1.307518601E0,-9.504783154E-1,-3.501681983E-1
1.586710994E1,1.491994381E0,1.265980899E-1,1.734806150E-1
1.588688135E1,4.460712075E-1,-3.681881726E-1,4.868452549E-1
1.590665119E1,7.404996157E-1,-4.433223903E-1,-2.029540092E-1
1.592642265E1,8.883246183E-1,1.229177356E0,-1.411820769E0
1.594619244E1,9.507837296E-1,-1.410446286E0,-1.454580069E0
1.596596390E1,-1.849340051E-1,-1.776038408E-1,-1.290414780E-1
1.598573369E1,-1.469545841E0,1.075854778E0,2.000524849E-2
1.600550515E1,-1.704111099E0,2.350082159E0,3.396310806E-1
1.602527500E1,-2.561740637E0,2.967648745E0,8.063184023E-1
1.604504640E1,-2.627101421E0,2.114295006E0,7.696675658E-1
1.606481625E1,-2.471335411E0,1.846133113E0,9.504783154E-1
1.608458770E1,-2.512872934E0,2.449039459E0,1.285222650E0
1.610435750E1,-2.865942717E0,3.461824179E0,1.178935170E0
1.612412895E1,-2.961234808E0,3.378138065E0,5.766398311E-1
1.614389875E1,-2.578844309E0,2.664668560E0,-1.296523362E-1
1.616367020E1,-2.068786860E0,2.087417841E0,-3.501681983E-1
1.618344005E1,-1.701667786E0,1.938371062E0,-8.872556686E-2
1.620321145E1,-1.487260342E0,2.000677586E0,8.047912270E-2
1.622298130E1,-1.326607585E0,1.813147426E0,-1.039967462E-1
1.624275270E1,-1.352263093E0,1.444195628E0,-3.452814221E-1
1.626252255E1,-1.598434567E0,1.198634982E0,-3.568875194E-1
1.628229401E1,-1.978992462E0,1.243837714E0,-2.548760176E-1
1.630206380E1,-2.268533945E0,1.020267606E0,-3.513898849E-1
1.632183526E1,-1.920351028E0,1.053711493E-2,-5.609105229E-1
1.634160515E1,-1.159846187E0,-3.278722763E-1,-7.514948249E-1
1.636137651E1,-8.721371889E-1,8.565605879E-1,-5.810684562E-1
1.638114635E1,-6.131379604E-1,1.928597450E0,-3.165715933E-1
1.640091776E1,-1.030804738E-1,1.515664816E0,-4.014793634E-1
1.642068760E1,2.029540092E-1,1.289651275E0,-5.914528370E-1
1.644045901E1,7.178982496E-1,1.213906169E0,-4.967715442E-1
1.646022885E1,1.653868914E0,1.019045949E0,-1.143811494E-1
1.648000026E1,2.502335787E0,2.762556672E-1,9.147437662E-2
1.649977010E1,3.053319931E0,-3.504736125E-1,2.932066917E-1
1.651954156E1,3.188928127E0,-4.182776511E-1,3.946073353E-1
1.653931135E1,3.531613350E0,-4.347705245E-1,5.088357925E-1
1.655908281E1,3.588422298E0,-6.491779089E-1,5.619794726E-1
1.657885260E1,2.925042152E0,-1.019504070E0,6.517740488E-1
1.659862406E1,2.243947506E0,-1.794669271E0,6.597150564E-1
1.661839385E1,2.039313555E0,-3.088443756E0,3.891097009E-1
1.663816531E1,2.500503302E0,-3.324841738E0,1.079672500E-1
1.665793510E1,3.058817625E0,-2.604041815E0,1.311794519E-1
1.667770656E1,3.210307837E0,-2.505084515E0,1.466033459E-1
1.669747635E1,3.017280102E0,-2.288844585E0,1.232384369E-1
1.671724781E1,2.074742794E0,-2.276016951E0,-2.133384049E-1
1.673701760E1,1.204896212E0,-2.129413605E0,-3.055763543E-1
1.675678901E1,7.142331600E-1,-2.033510447E0,-2.151709497E-1
1.677655885E1,2.750339806E-1,-1.558271408E0,-1.638597846E-1
1.679633026E1,-1.586675793E-1,-6.797202826E-1,2.367033064E-2
1.681610010E1,-6.259657145E-1,3.497100621E-2,2.669402659E-1
1.683587151E1,-1.092653036E0,4.472928941E-1,4.837910235E-1
1.685564135E1,-1.431062460E0,4.900522232E-1,5.515950918E-1
1.687541276E1,-1.241088867E0,2.023431510E-1,5.943543911E-1
1.689518260E1,-5.373928547E-1,-5.215108395E-1,6.145123243E-1
1.691495401E1,1.589729935E-1,-1.832541823E0,-4.413371533E-2
1.693472385E1,1.033248186E0,-1.469087601E0,-7.533273697E-1
1.695449526E1,1.445569992E0,8.131904006E-1,-4.479037523E-1
1.697426510E1,1.014311910E0,5.523586273E-1,-1.461452097E-1
1.699403651E1,1.502989650E0,-1.320651770E0,-7.936432958E-1
1.701380630E1,1.597060204E0,-7.255338430E-1,-2.327480793E0
1.703357776E1,6.256603003E-1,-9.132166505E-1,-2.020835400E0
1.705334755E1,-2.331909388E-1,1.033858955E-1,-6.885775924E-1
1.707311901E1,-1.109756708E0,6.720846891E-1,-2.493783981E-1
1.709288880E1,-1.324774981E0,1.554148197E0,1.398840249E-1
1.711266026E1,-2.012588978E0,2.045269251E0,3.738385141E-1
1.713243005E1,-2.363826275E0,1.822920918E0,3.506263196E-1
1.715220145E1,-2.524478912E0,1.375780702E0,5.711421967E-1
1.717197130E1,-2.468281031E0,1.125944257E0,1.152057886E0
1.719174270E1,-2.592893839E0,1.640277624E0,1.152668834E0
1.721151255E1,-2.675969124E0,2.026943922E0,7.262973785E-1
1.723128395E1,-2.693683624E0,2.099634647E0,3.261924386E-1
1.725105375E1,-2.569070816E0,1.965859175E0,1.183516532E-1
1.727082520E1,-2.230661392E0,1.282931924E0,1.783674061E-1
1.729059500E1,-1.978992462E0,7.386670709E-1,2.907632887E-1
1.731036645E1,-1.758476496E0,9.261971712E-1,1.441599578E-1
1.733013625E1,-1.538571477E0,9.891144037E-1,-1.033858955E-1
1.734990770E1,-1.533073902E0,5.615213513E-1,-3.043546379E-1
1.736967750E1,-1.674790502E0,1.430909634E-1,-4.033119082E-1
1.738944895E1,-1.757254839E0,5.150969625E-1,-3.941491842E-1
1.740921875E1,-1.861098886E0,8.999307156E-1,-4.039227366E-1
1.742899020E1,-1.553231835E0,4.289674759E-1,-4.570664763E-1
1.744876000E1,-1.156181097E0,1.815743446E-1,-5.560237169E-1
1.746853145E1,-7.078192830E-1,1.864611208E-1,-5.132644176E-1
1.748830125E1,-3.846810758E-1,2.188360244E-1,-5.468609929E-1
1.750807270E1,-2.069245130E-1,5.914528370E-1,-6.507050395E-1
1.752784250E1,-1.605001241E-1,3.202366829E-1,-6.470399499E-1
1.754761395E1,3.043546379E-1,5.028799772E-1,-5.651864409E-1
1.756738375E1,1.177408099E0,2.878617644E-1,-4.973823726E-1
1.758715520E1,2.152320385E0,-6.846070886E-1,-4.338542521E-1
1.760692505E1,2.856627226E0,-8.930587173E-1,-1.211004704E-1
1.762669645E1,2.929317951E0,-9.480349422E-1,2.712161839E-1
1.764646630E1,2.904884100E0,-1.274838209E0,4.599680007E-1
1.766623770E1,3.000176430E0,-1.403727055E0,7.470661998E-1
1.768600755E1,2.920766115E0,-1.126402378E0,9.156600237E-1
1.770577901E1,2.710634708E0,-1.532615781E0,1.077534556E0
1.772554880E1,2.538375854E0,-2.465990305E0,1.094638348E0
1.774532026E1,2.397269964E0,-3.359659910E0,6.731536984E-1
1.776509010E1,2.436364174E0,-3.419523001E0,3.689517379E-1
1.778486151E1,2.615953445E0,-2.467823029E0,6.248967648E-1
1.780463135E1,2.577470064E0,-2.079934835E0,8.240329623E-1
1.782440281E1,2.454689741E0,-2.322441339E0,6.786513329E-1
1.784417265E1,2.024042368E0,-2.528296709E0,3.848337829E-1
1.786394406E1,1.281862974E0,-2.406127453E0,6.337540597E-2
1.788371390E1,6.287145615E-1,-1.969982386E0,1.685938388E-1
1.790348536E1,1.241547018E-1,-1.337144613E0,3.359659910E-1
1.792325520E1,-2.362451702E-1,-5.404471159E-1,4.770717025E-1
1.794302661E1,-4.909684956E-1,1.265980899E-1,6.242858768E-1
1.796279645E1,-6.088619828E-1,7.246175408E-1,6.041279435E-1
1.798256791E1,-7.230904698E-1,6.617003083E-1,5.283828974E-1
1.800233776E1,-5.899257660E-1,-9.513945878E-2,4.049917459E-1
1.802210921E1,-1.562241912E-1,-1.104411840E0,1.875301152E-1
1.804187911E1,4.802786708E-1,-1.452594757E0,-3.697153032E-1
1.806165052E1,1.369214177E0,-8.719844371E-2,-1.895153672E-1
1.808142031E1,1.241547108E0,-7.070557028E-2,4.275930822E-1
1.810119177E1,8.321266770E-1,-1.502073407E0,5.668662786E-1
1.812096161E1,1.184738278E0,-1.849034667E0,3.365768492E-1
1.814073307E1,1.228719234E0,2.316638231E-1,1.374406368E-1
1.816050291E1,3.770454824E-1,2.304421216E-1,2.367033064E-2
1.818027437E1,-4.274403751E-1,-8.490777016E-1,-4.448495209E-1
1.820004421E1,-2.454078794E-1,-1.656006932E0,-1.009272337E0
1.821981567E1,-1.526354551E0,2.598086119E0,-1.969982497E-2
1.823958552E1,-2.933746576E0,4.338389874E0,7.464553714E-1
1.825935698E1,-2.117654800E0,2.077033281E0,6.371136904E-1
1.827912682E1,-1.801235914E0,-1.458397806E-1,8.594620824E-1
1.829889828E1,-2.625268698E0,8.192988634E-1,1.014617324E0
1.831866812E1,-2.861666679E0,2.681772232E0,6.658235192E-1
1.833843958E1,-2.661308765E0,2.608470440E0,2.367033064E-2
1.835820942E1,-2.679634094E0,2.286554098E0,-6.123743951E-2
1.837798088E1,-2.387038469E0,2.058707952E0,1.012479365E-1
1.839775072E1,-1.919129372E0,1.256054640E0,1.878355257E-2
1.841752218E1,-1.642415524E0,1.135106921E0,2.122694254E-2
1.843729203E1,-1.553231835E0,1.422205091E0,-7.284353673E-2
1.845706354E1,-1.442668557E0,1.364174604E0,-3.538332880E-1
1.847683343E1,-1.501309872E0,9.060391784E-1,-4.527905285E-1
1.849660484E1,-1.650356531E0,7.582141757E-1,-4.179722369E-1
1.851637468E1,-1.753589749E0,6.726955175E-1,-4.362976551E-1
1.853614614E1,-1.730988383E0,3.709369898E-1,-4.601207078E-1
1.855591599E1,-1.567281365E0,1.969982497E-2,-6.134433746E-1
1.857568750E1,-1.201383829E0,2.475458533E-1,-6.006155610E-1
1.859545739E1,-8.648070097E-1,5.010474920E-1,-3.697153032E-1
1.861522880E1,-6.613948941E-1,5.358657837E-1,-3.587200642E-1
1.863499864E1,-5.037962794E-1,7.392778993E-1,-4.717268050E-1
1.865477010E1,-3.290939629E-1,7.209524512E-1,-4.534013867E-1
1.867454005E1,1.278197914E-1,7.368345261E-1,-2.866400778E-1
1.869431145E1,8.260182142E-1,2.139492482E-1,-1.217113137E-1
1.871408130E1,1.712510347E0,-2.344126403E-1,-2.641914412E-2
1.873385276E1,2.468739271E0,-5.416688323E-1,2.626643181E-1
1.875362270E1,2.879228592E0,-4.443913698E-2,6.933116317E-1
1.877339411E1,2.953751802E0,3.069507517E-2,8.753440976E-1
1.879316395E1,2.929928780E0,-1.348445266E-1,1.014006495E0
1.881293541E1,2.683757544E0,-8.047912270E-2,1.054322362E0
1.883270536E1,2.549981833E0,-5.306735635E-1,1.147171140E0
1.885247677E1,2.589076042E0,-1.575375080E0,1.062263370E0
1.887224661E1,2.663599491E0,-2.552119732E0,4.911212027E-1
1.889201807E1,2.843799353E0,-2.390856266E0,1.685938388E-1
1.891178802E1,2.978796721E0,-1.484969735E0,3.445178568E-1
1.893155942E1,2.769886971E0,-1.359745979E0,3.854446113E-1
1.895132927E1,2.440640211E0,-1.325538516E0,1.716480851E-1
1.897110072E1,1.917755008E0,-1.346918225E0,-3.104631305E-1
1.899087067E1,1.358829737E0,-1.291331053E0,-7.301151752E-1
1.901064208E1,8.046385646E-1,-1.254680276E0,-6.390989423E-1
1.903041192E1,1.620272398E-1,-9.926267862E-1,-3.697153032E-1
1.905018343E1,-5.086830258E-1,-4.995203316E-1,-1.374406274E-3
1.906995333E1,-1.156181097E0,-9.330692142E-2,3.048127890E-1
1.908972474E1,-1.584995866E0,2.463241518E-1,5.613686442E-1
1.910949458E1,-1.630809426E0,6.598677635E-1,7.941014171E-1
1.912926609E1,-1.016297102E0,9.286405444E-1,8.655705452E-1
1.914903593E1,3.741439432E-2,-7.177455351E-3,6.804838181E-1
1.916880739E1,8.974873424E-1,-1.437323570E0,-6.123743951E-2
1.918857734E1,1.631267548E0,-1.057376623E0,-3.935383558E-1
1.920834875E1,1.236660242E0,7.345438004E-2,-2.214321308E-2
1.922811859E1,2.939702570E-1,-5.508314967E-1,-6.673506647E-2
1.924789005E1,2.035648525E-1,-1.402505279E0,-3.300102353E-1
1.926766000E1,4.136963189E-1,-9.345963001E-1,-5.028799772E-1
1.928743140E1,-3.828485310E-1,-2.489202656E-2,-6.018372774E-1
1.930720125E1,9.200887084E-1,5.163186193E-1,3.100049868E-2
1.932697270E1,-2.038702667E-1,2.126512051E0,5.577035546E-1
1.934674265E1,-6.815528274E-1,-1.224748731E0,-3.043546379E-1
1.936651406E1,-1.501157135E-1,-5.624375939E-1,-4.014793634E-1
1.938628390E1,-2.237380743E0,2.970092058E0,5.619794726E-1
1.940605541E1,-2.577622652E0,2.980476379E0,3.787252903E-1
1.942582531E1,-1.704722047E0,1.191304922E0,3.713951409E-1
1.944559671E1,-1.883089423E0,7.482878864E-3,8.270871639E-1
1.946536656E1,-2.325953722E0,1.423426867E0,1.016449809E0
1.948513807E1,-2.375432253E0,2.160719395E0,4.874561131E-1
1.950490791E1,-2.270977497E0,1.633558273E0,6.093201414E-2
1.952467937E1,-2.199508190E0,1.505891204E0,1.704263836E-1
1.954444932E1,-2.079782248E0,1.540709496E0,1.478250325E-1
1.956422073E1,-1.824448109E0,1.125333309E0,4.932591692E-2
1.958399057E1,-1.556896925E0,1.011715770E0,-2.519745007E-2
1.960376203E1,-1.537349820E0,1.234675050E0,-6.978929788E-2
1.962353198E1,-1.514137626E0,1.008661509E0,-1.889045089E-1
1.964330338E1,-1.581330895E0,7.362236381E-1,-2.475458533E-1
1.966307322E1,-1.772526026E0,3.691044450E-1,-2.652604282E-1
1.968284468E1,-1.816506982E0,-3.180987239E-1,-3.923166394E-1
1.970261458E1,-1.771304369E0,-1.024696305E-1,-3.788780272E-1
1.972238604E1,-1.523300409E0,4.454603493E-1,-4.106420577E-1
1.974215588E1,-9.998042583E-1,2.927485406E-1,-3.452814221E-1
1.976192739E1,-5.862606764E-1,3.436015919E-2,-2.725905776E-1
1.978169724E1,-4.653128982E-1,6.061131954E-1,-2.560977042E-1
1.980146869E1,-4.475983381E-1,5.987830162E-1,-3.080197275E-1
1.982123864E1,-4.048390090E-1,7.197307944E-1,-2.279987335E-1
1.984101005E1,2.580829710E-2,8.211314082E-1,-1.644706279E-1
1.986077989E1,4.509579837E-1,6.696413159E-1,-1.644706279E-1
1.988055135E1,1.204896212E0,4.723376334E-1,-1.974563748E-1
1.990032130E1,2.099787474E0,-9.575030953E-2,-1.107160673E-1
1.992009270E1,2.751561403E0,-3.724641204E-1,2.070772201E-1
1.993986255E1,3.157164097E0,-4.317162931E-1,2.669402659E-1
1.995963401E1,3.338585615E0,-2.057028115E-1,5.106683373E-1
1.997940395E1,3.058817625E0,7.834116369E-2,6.029062271E-1
1.999917536E1,2.607401609E0,1.485885978E-1,5.320479870E-1
2.001894520E1,2.264716148E0,-8.289197087E-1,6.884248853E-1
2.003871671E1,2.326411724E0,-2.280292749E0,5.717530251E-1
2.005848661E1,2.822419643E0,-2.480650663E0,2.363978922E-1
2.007825802E1,3.181597948E0,-1.753131628E0,1.502684206E-1
2.009802796E1,3.179765463E0,-1.554606318E0,2.388412803E-1
2.011779937E1,2.859070539E0,-1.541778445E0,1.808107942E-1
2.013756921E1,2.130940676E0,-1.293163657E0,-2.029540092E-1
2.015734067E1,1.553079128E0,-1.099525094E0,-4.833329022E-1
2.017711062E1,1.176797271E0,-1.067761064E0,-5.969504714E-1
2.019688203E1,6.329904795E-1,-8.832851648E-1,-6.219952106E-1
2.021665187E1,-3.527642787E-2,-2.747285664E-1,-4.845545888E-1
2.023642338E1,-7.133168578E-1,3.458922505E-1,-1.675248593E-1
2.025619328E1,-1.299730301E0,7.667660117E-1,1.324011385E-1
2.027596468E1,-1.826891422E0,8.461761475E-1,2.834331393E-1
2.029573453E1,-2.070008755E0,9.787300229E-1,3.494046330E-1
2.031550598E1,-1.722436547E0,8.535063267E-1,5.815265775E-1
2.033527593E1,-6.723901033E-1,-5.604523420E-2,6.053496599E-1
2.035504734E1,6.745280623E-1,-1.304158926E0,1.238492802E-1
2.037481718E1,1.689908981E0,-3.211529553E-1,-2.334963679E-1
2.039458864E1,1.355164647E0,2.567085624E-1,2.076880634E-1
2.041435859E1,9.164236188E-1,-1.547886968E0,5.421269313E-2
2.043413000E1,1.025918007E0,-1.316375852E0,-3.776563108E-1
2.045389984E1,-1.403421611E-1,-3.588727489E-2,-9.469659925E-1
2.047367130E1,4.582881629E-1,-1.520398855E0,-1.184585571E0
2.049344125E1,2.530434728E-1,4.314108789E-1,-1.724116355E-1
2.051321265E1,-7.798992395E-1,6.397097707E-1,2.266243398E-1
2.053298250E1,-6.015318632E-1,1.846285909E-1,1.954711229E-1
2.055275395E1,-1.142131686E0,1.078908920E0,5.827482939E-1
2.057252380E1,-1.371199369E0,1.102732062E0,4.703523815E-1
2.059229526E1,-1.869650722E0,1.472294569E0,4.770717025E-1
2.061206520E1,-2.443236351E0,2.543720722E0,5.668662786E-1
2.063183661E1,-2.742551565E0,2.912061691E0,5.534276366E-1
2.065160645E1,-2.644205093E0,2.412388563E0,4.758500159E-1
2.067137791E1,-2.269755602E0,1.577971220E0,4.746283293E-1
2.069114776E1,-2.258760452E0,7.533273697E-1,4.501944184E-1
2.071091927E1,-1.905079842E0,1.223068953E0,3.585673273E-1
2.073068916E1,-1.614927411E0,1.261552334E0,1.514901221E-1
2.075046057E1,-1.609429836E0,1.092958450E0,1.878355257E-2
2.077023041E1,-1.584995866E0,1.209019423E0,-4.291202128E-2
2.079000187E1,-1.378529549E0,1.148545504E0,-1.113269106E-1
2.080977171E1,-1.280794024E0,9.371923804E-1,-2.701472044E-1
2.082954317E1,-1.310114622E0,8.809944391E-1,-3.904841244E-1
2.084931312E1,-1.245364904E0,5.627430081E-1,-3.287885487E-1
2.086908453E1,-1.142131686E0,3.013004065E-1,-2.933593988E-1
2.088885437E1,-1.042563558E0,3.886515796E-1,-2.774773538E-1
2.090862583E1,-8.477032781E-1,5.230379701E-1,-6.978929788E-2
2.092839567E1,-6.882721782E-1,2.041756958E-1,-4.107947648E-2
2.094816713E1,-5.648810267E-1,4.509579837E-1,-2.634278834E-1
2.096793708E1,-5.807630420E-1,8.070819378E-1,-3.532224298E-1
2.098770849E1,-5.257867575E-1,1.144269586E0,-3.617742956E-1
2.100747833E1,-2.301367074E-1,1.265217423E0,-4.546230733E-1
2.102724979E1,1.742441803E-1,1.030652046E0,-4.790569544E-1
2.104701963E1,6.262711287E-1,6.317687631E-1,-4.265241027E-1
2.106679109E1,1.298355818E0,1.119377613E-1,-4.204156399E-1
2.108656093E1,2.075964451E0,-1.324011385E-1,-3.348970115E-1
2.110633239E1,2.811424494E0,-4.427115619E-1,-5.940489471E-2
2.112610234E1,3.231076479E0,-9.651386738E-1,1.991362125E-1
2.114587375E1,3.376458168E0,-8.619054556E-1,4.550811946E-1
2.116564359E1,3.122956514E0,1.944021434E-1,5.595360994E-1
2.118541505E1,2.609234095E0,2.982461751E-1,5.497625470E-1
2.120518489E1,2.041756868E0,-1.473363638E0,8.441908956E-1
2.122495635E1,2.005106211E0,-2.866095304E0,8.551861644E-1
2.124472619E1,2.427201509E0,-3.026748180E0,4.013266563E-1
2.126449770E1,2.766221762E0,-2.579607964E0,2.589992285E-1
2.128426760E1,2.702082872E0,-2.179502964E0,3.017585576E-1
2.130403901E1,2.199966431E0,-1.871025205E0,-2.825168520E-2
2.132380885E1,1.761378050E0,-1.461146593E0,-1.614163816E-1
2.134358031E1,1.459008694E0,-1.539335132E0,2.183778957E-2
2.136335015E1,1.107771516E0,-1.555827975E0,3.283303976E-2
2.138312161E1,6.061131954E-1,-1.099525094E0,1.055238619E-1
2.140289145E1,1.382041872E-1,-3.932329118E-1,2.449497581E-1
2.142266291E1,-2.118112892E-1,4.643966258E-1,3.597890437E-1
2.144243276E1,-7.053758502E-1,7.783721089E-1,4.178195298E-1
2.146220421E1,-1.300341129E0,9.139801860E-1,2.956500649E-1
2.148197416E1,-1.742594481E0,8.254073858E-1,9.025268257E-2
2.150174557E1,-1.737707734E0,4.204156399E-1,-1.046075895E-1
2.152151541E1,-1.157402873E0,-2.008160353E-1,4.260659590E-2
2.154128687E1,-2.484621257E-1,-1.071426034E0,1.423274130E-1
2.156105671E1,7.099572420E-1,-6.632274389E-1,-6.795676053E-2
2.158082817E1,1.462062955E0,1.117392302E0,6.032116711E-2
2.160059802E1,1.017976999E0,8.131904006E-1,4.086568058E-1
2.162036948E1,6.965186000E-1,-1.001789451E0,-6.612421572E-2
2.164013932E1,4.937172830E-1,-3.266505599E-1,-6.629219651E-1
2.165991078E1,-5.386145711E-1,-5.416688323E-1,-1.122279167E0
2.167968062E1,5.236487985E-1,-1.513679504E0,-7.881456614E-1
2.169945208E1,2.823641598E-1,7.948650122E-1,1.765348613E-1
2.171922192E1,-7.395833135E-1,2.493783981E-1,2.919849753E-1
2.173899338E1,-6.668924689E-1,-4.970769584E-1,1.145338640E-2
2.175876323E1,-1.173284888E0,3.165715933E-1,1.643179059E-1
2.177853468E1,-1.145185947E0,1.242005229E0,5.909947306E-2
2.179830453E1,-1.457939744E0,1.557813168E0,2.742704153E-1
2.181807598E1,-1.882478595E0,1.681815267E0,5.344913602E-1
2.183784583E1,-1.902025700E0,2.237075329E0,3.420744538E-1
2.185761729E1,-2.150640488E0,1.702584028E0,1.942494214E-1
2.187738713E1,-2.363826275E0,1.317750216E0,3.817795515E-1
2.189715859E1,-2.212946892E0,9.689564705E-1,4.520269632E-1
2.191692843E1,-1.942952394E0,7.789829373E-1,1.398840249E-1
2.193669989E1,-1.661962628E0,4.741701782E-1,-1.663031727E-1
2.195646974E1,-1.555064440E0,3.122956753E-1,-1.229330078E-1
2.197624119E1,-1.528797984E0,3.819322586E-1,-5.757235363E-2
2.199601104E1,-1.594158649E0,3.807105422E-1,-1.015533581E-1
2.201578250E1,-1.582552552E0,3.129065037E-1,-2.536543310E-1
2.203555234E1,-1.561783671E0,1.516428292E-1,-3.257342875E-1
2.205532380E1,-1.195886254E0,1.259872466E-1,-5.187620521E-1
2.207509364E1,-1.126249671E0,-5.312843919E-1,-4.973823726E-1
2.209486510E1,-1.239256382E0,-3.761292100E-1,-5.841227174E-1
2.211463494E1,-1.019351363E0,1.327065676E-1,9.452861547E-2
2.213440640E1,-1.119530320E0,-1.611109674E-1,3.347443044E-1
2.215417625E1,-1.060278177E0,-3.987305462E-1,1.844758689E-1
2.217394770E1,-1.099983215E0,-1.085781008E-1,3.771981969E-2
2.219371755E1,-1.341878772E0,5.818320066E-2,-1.290414780E-1
2.221348901E1,-1.050504565E0,9.597937465E-1,-5.309789777E-1
2.223325885E1,5.438067913E-1,2.684826374E0,-4.943281412E-1
2.225303031E1,1.248266339E0,1.849798203E0,3.891097009E-1
2.227280015E1,1.571404636E-1,-3.022166789E-1,-9.055810422E-2
2.229257161E1,3.532224298E-1,6.946860552E-1,-2.444916219E-1
2.231234145E1,1.584843159E0,-1.861557066E-1,-4.625640810E-1
2.233211291E1,2.506611824E0,-7.340856791E-1,-5.645755529E-1
2.235188276E1,3.066758633E0,-2.747285664E-1,-7.411104441E-1
2.237165421E1,3.631181479E0,8.689302206E-2,-7.863131166E-1
2.239142406E1,4.094814777E0,-2.466295809E-1,-4.931064546E-1
2.241119552E1,3.711202621E0,-1.097692490E0,-2.108950168E-1
2.243096536E1,2.583578587E0,-1.176491857E0,1.905843467E-1
2.245073682E1,1.950129867E0,-6.265766025E-1,4.758500159E-1
2.247050666E1,1.667307615E0,-1.031110168E0,6.444438696E-1
2.249027812E1,1.595838428E0,-1.654174328E0,7.696675658E-1
2.251004802E1,1.817576051E0,-1.574764252E0,7.482879162E-1
2.252981937E1,1.746717691E0,-1.346307397E0,7.745543122E-1
2.254958932E1,1.727781415E0,-1.480082870E0,8.185353279E-1
2.256936067E1,1.859724522E0,-1.693879485E0,9.358180165E-1
2.258913052E1,1.563463569E0,-1.787949920E0,7.989882231E-1
2.260890198E1,9.078717232E-1,-1.844147921E0,5.393781066E-1
2.262867182E1,2.780882120E-1,-1.903400064E0,6.273401380E-1
2.264844328E1,1.296523362E-1,-9.981244206E-1,7.281299233E-1
2.266821312E1,3.691044450E-1,-7.864658535E-2,5.992411375E-1
2.268798458E1,1.974563748E-1,4.570664763E-1,3.487937748E-1
2.270775442E1,-6.887302548E-2,8.608365059E-1,1.006370857E-1
2.272752583E1,-1.525591016E-1,1.042258143E0,5.344913341E-3
2.274729578E1,-1.653869003E-1,8.302941322E-1,2.489202656E-2
2.276706713E1,-3.987305462E-1,2.402156889E-1,3.466558084E-2
2.278683698E1,-7.273663878E-1,-3.486410677E-1,1.122431830E-1
2.280660843E1,-8.861866593E-1,-8.478559852E-1,2.254026383E-1
2.282637828E1,-7.157602906E-1,-1.199704051E0,3.768927455E-1
2.284614974E1,-1.879882365E-1,-9.144383669E-1,6.163448691E-1
2.286591953E1,4.637857676E-1,-5.404471159E-1,5.931326747E-1
2.288569098E1,6.287145615E-1,-9.016105533E-1,6.981984377E-1
2.290546083E1,4.027010500E-1,-1.475196123E0,1.039051175E0
2.292523229E1,7.528692484E-2,-1.092194915E0,1.637681484E0
2.294500213E1,-3.810159862E-1,2.035648525E-1,2.572277784E0
2.296477359E1,-5.117372870E-1,7.948650122E-1,2.197217703E0
2.298454348E1,-1.794363856E-1,6.421532035E-1,1.293774486E0
2.300431484E1,4.344651103E-1,3.440597057E-1,7.104153633E-1
2.302408468E1,4.094203711E-1,2.744231224E-1,3.866663277E-1
2.304385614E1,-5.361711979E-1,3.855973184E-1,5.186093450E-1
2.306362598E1,-1.063332319E0,1.931804419E-1,8.289197087E-1
2.308339744E1,-1.041341901E0,1.002553105E0,8.796200752E-1
2.310316724E1,-9.686510563E-1,1.801541328E0,7.959339619E-1
2.312293869E1,-8.073873520E-1,1.749008417E0,2.076880634E-1
2.314270854E1,-7.634063363E-1,7.533273697E-1,-2.200577259E-1
2.316248000E1,-9.955283403E-1,6.336013079E-1,-2.622061968E-1
2.318224979E1,-1.069440842E0,1.139382839E0,-1.424801201E-1
2.320202125E1,-9.863656163E-1,1.796654463E0,8.597674966E-2
2.322179109E1,-6.998782754E-1,2.326259136E0,4.019374847E-1
2.324156255E1,-3.932329118E-1,2.802719831E0,6.401679516E-1
2.326133234E1,-6.076403260E-1,2.812493563E0,5.723638535E-1
2.328110380E1,-6.412369013E-1,2.431324720E0,2.260134816E-1
2.330087364E1,-4.903576374E-1,2.270061016E0,5.473191738E-1
2.332064505E1,-5.544965863E-1,2.216917515E0,9.816315174E-1
2.334041489E1,-1.769929975E-1,2.308544397E0,1.649287581E0
2.336018635E1,7.284353673E-2,2.582814932E0,2.319997787E0
2.337995619E1,-5.459447503E-1,1.632947445E0,2.298618317E0
2.339972760E1,-2.178128719E0,-1.127013206E0,1.748855710E0
2.341949744E1,-2.748659849E0,-2.955889940E0,1.953489542E0
2.343926890E1,-1.858655453E0,-2.922293186E0,1.045770526E0
2.345903869E1,-6.491779089E-1,-1.307824016E0,4.031592011E-1
2.347881015E1,3.990359604E-1,7.808154821E-1,4.410317242E-1
2.349858000E1,9.849911928E-2,1.433811188E0,1.034775257E0
2.351835140E1,2.145601064E-1,1.171757698E0,1.671278119E0
2.353812125E1,9.078717232E-1,5.425850749E-1,1.675554037E0
2.355789270E1,8.932114244E-1,1.687465608E-1,1.185654521E0
2.357766255E1,7.117897868E-1,-1.191763043E0,1.042716265E0
2.359743395E1,1.007592559E0,-1.244295835E0,7.568397522E-1
2.361720380E1,1.431520581E0,-7.206470370E-1,4.764608741E-1
2.363697520E1,1.481610060E0,-1.254680276E0,6.719319820E-1
2.365674505E1,1.894542813E0,-1.888128877E0,7.733326554E-1
2.367651651E1,2.776606321E0,-1.352415800E0,4.727957845E-1
2.369628630E1,3.257343054E0,-1.270562291E0,5.033381581E-1
2.371605776E1,3.093636036E0,-1.974258304E0,7.177455425E-1
2.373582760E1,3.262840748E0,-1.414722204E0,6.939224601E-1
2.375559901E1,3.402724743E0,-1.232078910E0,7.018635273E-1
2.377536885E1,2.902440786E0,-2.602820158E0,9.584193230E-1
2.379514026E1,2.714299679E0,-3.158080339E0,1.150836229E0
2.381491010E1,3.241461039E0,-1.925390601E0,1.163663983E0
2.383468151E1,3.165715933E0,-1.259567022E0,1.295607090E0
2.385445135E1,2.550592661E0,-2.205769539E0,1.498408318E0
2.387422281E1,2.659934282E0,-3.210002422E0,1.325538516E0
2.389399260E1,2.909160137E0,-3.357216597E0,8.545753360E-1
2.391376406E1,4.485146046E0,-3.335836887E0,6.725428104E-1
2.393353390E1,4.535235405E0,-3.710286140E0,4.520269632E-1
2.395330531E1,3.729527950E0,-3.371876955E0,4.324798584E-1
2.397307515E1,3.271392584E0,-3.049960375E0,1.305686086E-1
2.399284656E1,3.010560751E0,-3.594836235E0,8.597674966E-2
2.401261640E1,2.614120960E0,-3.499543905E0,-4.246915579E-1
2.403238781E1,2.513330936E0,-2.568001986E0,-1.636612535E0
2.405215765E1,2.653825998E0,-2.070161343E0,-1.911493778E0
2.407192906E1,3.050265789E0,-1.958376288E0,-1.837581277E0
2.409169890E1,3.094857693E0,-1.591257095E0,-1.568197608E0
2.411147036E1,2.582967520E0,-1.137397647E0,-1.276823521E0
2.413124015E1,2.405210972E0,-1.086697221E0,-1.122889996E0
2.415101161E1,2.398491859E0,-1.394564271E0,-9.567395449E-1
2.417078140E1,1.926306844E0,-1.455038190E0,-9.439117312E-1
2.419055286E1,1.382041931E0,-1.366465330E0,-9.695672989E-1
2.421032265E1,1.352110386E0,-1.162442327E0,-1.287207842E0
2.423009411E1,1.747939467E0,-8.081509471E-1,-1.669598222E0
2.424986390E1,2.115058661E0,-5.294518471E-1,-1.623784781E0
2.426963536E1,2.254942656E0,-3.107685447E-1,-1.233453274E0
2.428940515E1,2.190803766E0,-3.028275371E-1,-9.206995368E-1
2.430917661E1,1.755880475E0,-5.459447503E-1,-7.594358325E-1
2.432894640E1,1.253153205E0,-1.049130186E-1,-4.326325655E-1
2.434871786E1,1.078450799E0,4.485146105E-1,1.756185852E-2
2.436848765E1,1.305685997E0,4.008685052E-1,-2.596100792E-3
2.438825911E1,1.530477762E0,6.856760383E-2,-4.240806997E-1
2.440802890E1,1.699071646E0,-4.054498672E-1,-7.533273697E-1
2.442780036E1,1.663031697E0,-6.259657145E-1,-5.712949038E-1
2.444757015E1,1.288582325E0,-5.557183027E-1,-2.432699203E-1
2.446734161E1,9.237537384E-1,1.669140160E-1,2.977880463E-2
2.448711140E1,3.868190348E-1,1.504211426E-1,-2.397575416E-2
2.450688286E1,-6.765133142E-2,3.069507517E-2,-2.214321308E-2
2.452665265E1,7.711946964E-2,5.560237169E-1,-2.519745007E-2
2.454642411E1,5.529694557E-1,-1.128540337E-1,-1.296523362E-1
2.456619390E1,6.959077120E-1,-3.975088596E-1,-2.458660305E-2
2.458596531E1,4.973823726E-1,-5.848862603E-2,7.253811508E-2
2.460573515E1,2.035648525E-1,2.799207568E-1,1.478250325E-1
2.462550656E1,-6.337540597E-2,4.595098495E-1,2.015796006E-1
2.464527640E1,-2.924431264E-1,2.866400778E-1,1.844758689E-1
2.466504781E1,-3.950654566E-1,6.673506647E-2,1.563768983E-1
2.468481765E1,-2.924431264E-1,-2.733541466E-2,2.095206082E-1
2.470458906E1,-7.009471953E-2,-5.971032009E-2,2.938175201E-1
2.472435890E1,2.121167034E-1,-9.941539168E-2,3.420744538E-1
2.474413031E1,4.002576768E-1,-1.030804738E-1,2.125748396E-1
2.476390015E1,6.368082762E-2,-2.276933193E-1,4.688252881E-2
2.478367156E1,-3.052709103E-1,1.314848661E-1,-8.750387281E-2
2.480344135E1,-2.649549842E-1,3.947600424E-1,-2.188360244E-1
2.482321281E1,-3.894151375E-2,5.329642445E-2,-2.017323077E-1
2.484298260E1,9.055810422E-2,-6.276455522E-2,-5.451811850E-2
2.486275406E1,2.275406010E-2,9.315420873E-3,9.009997360E-3
2.488252385E1,-8.719844371E-2,2.841966748E-1,-8.200624585E-2
2.490229526E1,-7.009471953E-2,4.399627447E-1,-2.310529798E-1
2.492206510E1,-3.161134571E-2,2.487675399E-1,-2.475458533E-1
2.494183651E1,-1.122431830E-1,7.223268598E-2,-1.919587553E-1
2.496160635E1,-2.625116110E-1,-1.152974218E-1,-1.546970755E-1
2.498137776E1,-3.266505599E-1,-1.659977436E-1,-6.856760383E-2
2.500114760E1,-2.423536479E-1,4.428642802E-3,3.894151375E-2
2.502091901E1,-1.024696305E-1,2.267770469E-1,1.030804738E-1
2.504068880E1,6.673506647E-2,1.443126649E-1,1.466033459E-1
2.506046026E1,2.811424434E-1,-1.543916464E-1,6.765133142E-2
2.508023005E1,3.416163325E-1,-3.694098890E-1,5.909947306E-2
2.510000145E1,3.220692277E-1,-4.805840850E-1,8.842013776E-2
2.511977130E1,1.931804419E-1,-6.082511544E-1,5.421269313E-2
2.513954270E1,-1.159082651E-1,-5.288410187E-1,-4.535540938E-2
2.515931250E1,-5.270084739E-1,-3.388675153E-1,-1.699682474E-1
2.517908395E1,-7.090409398E-1,-1.892099380E-1,-2.005106062E-1
2.519885375E1,-5.441122055E-1,-2.496838123E-1,-1.443126649E-1
2.521862515E1,-2.405211031E-1,-4.744756222E-1,-7.711946964E-2
2.523839500E1,5.650337320E-3,-4.946335554E-1,1.878355257E-2
2.525816640E1,8.872556686E-2,-5.050179958E-1,8.414421231E-2
2.527793619E1,-5.421269313E-2,-4.268295169E-1,1.380514801E-1
2.529770765E1,-2.557922900E-1,-3.352024257E-1,1.575985998E-1
2.531747744E1,-2.930539846E-1,-3.022166789E-1,8.536590636E-2
2.533724885E1,-2.533488870E-1,-4.023956358E-1,6.276455522E-2
2.535701869E1,-4.543176591E-1,-1.922641695E-1,2.855710872E-2
2.537679010E1,-5.135698318E-1,-9.269607067E-2,-2.886253223E-2
2.539655989E1,-3.498627543E-1,-2.057028115E-1,2.733541466E-2
2.541633130E1,-6.459710002E-2,-3.663556576E-1,1.472141892E-1
