"Time (s)","Gyroscope x (rad/s)","Gyroscope y (rad/s)","Gyroscope z (rad/s)"
1.215731000E-2,7.118499875E-1,-1.960004717E-1,-1.217838407E0
3.200418500E-2,0.000000000E0,0.000000000E0,0.000000000E0
5.185731000E-2,3.874630900E-3,-3.291691095E-2,-1.923352852E-2
7.171043500E-2,2.661627159E-2,-9.721484035E-2,-5.846852809E-2
9.156199700E-2,5.656611919E-2,-1.719672978E-1,-1.060113013E-1
1.114151220E-1,7.612777352E-1,-2.247093916E0,-1.353607535E0
1.312729350E-1,6.369753480E-1,-1.849996686E0,-1.092715740E0
1.511213720E-1,5.643871427E-1,-1.590937376E0,-9.263160229E-1
1.709729350E-1,5.031784177E-1,-1.435009718E0,-7.956781387E-1
1.908260600E-1,5.215218067E-1,-1.481592536E0,-7.550469041E-1
2.106791850E-1,5.616818666E-1,-1.540026188E0,-7.320609093E-1
2.305307470E-1,5.315400362E-1,-1.363608241E0,-6.358758211E-1
2.503838720E-1,4.962145686E-1,-1.213998675E0,-5.556255579E-1
2.702369970E-1,3.913377225E-1,-9.250419736E-1,-3.859097362E-1
2.900885600E-1,3.240203857E-1,-7.404035926E-1,-2.754478753E-1
3.099416850E-1,2.732312977E-1,-6.041282415E-1,-1.978679746E-1
3.297948100E-1,2.304183692E-1,-5.049935579E-1,-1.430646330E-1
3.496479350E-1,1.848129183E-1,-4.110424817E-1,-1.001295373E-1
3.694994970E-1,1.427155733E-1,-3.270223439E-1,-6.808529049E-2
3.893526220E-1,1.210734919E-1,-2.849948108E-1,-5.895722285E-2
4.092057470E-1,1.145983189E-1,-2.738246918E-1,-6.504841894E-2
4.290573100E-1,1.082453206E-1,-2.646791935E-1,-6.770132482E-2
4.489104350E-1,9.300859272E-2,-2.168571651E-1,-6.393141299E-2
4.687619970E-1,6.902777404E-2,-9.573131055E-2,-7.904595882E-2
4.886151220E-1,4.953244328E-2,-1.616174914E-2,-8.487536013E-2
5.084666850E-1,3.324852139E-2,5.342452973E-2,-9.131562710E-2
5.283213720E-1,2.776818909E-2,9.880308807E-2,-1.079660654E-1
5.481729350E-1,2.816961333E-2,1.385791451E-1,-1.392598152E-1
5.680244970E-1,2.871066518E-2,1.908168495E-1,-1.679704934E-1
5.878776220E-1,2.982767671E-2,2.192482650E-1,-1.880243123E-1
6.077307470E-1,3.139847144E-2,2.284286916E-1,-1.970825791E-1
6.275901220E-1,2.888519876E-2,2.418328226E-1,-2.010619342E-1
6.474354350E-1,3.143338114E-2,2.466499358E-1,-2.085144818E-1
6.672885600E-1,4.564036056E-2,2.098234892E-1,-2.273989469E-1
6.871416850E-1,7.068583369E-2,1.425933987E-1,-2.544341087E-1
7.069948100E-1,9.206611663E-2,7.098253816E-2,-2.732836604E-1
7.268463720E-1,1.014210805E-1,1.706931926E-2,-2.766695917E-1
7.467010600E-1,1.005484164E-1,-1.162389293E-2,-2.657089233E-1
7.665510600E-1,9.649925679E-2,-2.684316412E-2,-2.487792373E-1
7.864041850E-1,8.393288404E-2,-2.635447122E-2,-2.245191485E-1
8.062588720E-1,7.869689912E-2,-4.056145251E-2,-2.104517967E-1
8.261104350E-1,7.637561113E-2,-6.028367206E-2,-2.016902417E-1
8.459635600E-1,7.394959778E-2,-8.693484962E-2,-2.001543641E-1
8.658151220E-1,8.335692436E-2,-1.414414793E-1,-2.171887755E-1
8.856682470E-1,9.379399568E-2,-1.954245120E-1,-2.389355749E-1
9.055213720E-1,1.040914357E-1,-2.456201911E-1,-2.669655681E-1
9.253729350E-1,1.015432552E-1,-2.626895010E-1,-2.800380886E-1
9.452260600E-1,9.436995536E-2,-2.510132492E-1,-2.933374941E-1
9.650791850E-1,8.210028708E-2,-2.140646279E-1,-3.109129667E-1
9.849323100E-1,7.265805453E-2,-1.677261442E-1,-3.308620751E-1
1.004783872E0,6.686356664E-2,-1.245816052E-1,-3.511427939E-1
1.024636997E0,6.269222498E-2,-1.068141535E-1,-3.748269081E-1
1.044488560E0,5.892231688E-2,-1.022413895E-1,-3.845309317E-1
1.064341685E0,5.166174471E-2,-9.585348517E-2,-3.773052692E-1
1.084194810E0,4.637339711E-2,-1.230108067E-1,-3.711268008E-1
1.104047935E0,1.677261479E-2,-1.213178337E-1,-3.312460482E-1
1.123905747E0,-8.756317198E-2,2.621484548E-2,-2.051459998E-1
1.143752622E0,-1.499237865E-1,8.494517207E-2,-1.263792962E-1
1.163605747E0,-1.842194945E-1,9.831439704E-2,-8.445648104E-2
1.183458872E0,-1.952325255E-1,7.977899909E-2,-7.866198570E-2
1.203310435E0,-1.841147840E-1,-1.150172018E-2,-8.457865566E-2
1.223163560E0,-1.682671905E-1,-1.309520602E-1,-7.984881103E-2
1.243015122E0,-1.535191536E-1,-2.404365540E-1,-8.326965570E-2
1.262868247E0,-1.604830176E-1,-3.041410744E-1,-7.801621407E-2
1.282721372E0,-1.847780049E-1,-3.243519962E-1,-5.492551252E-2
1.302574497E0,-2.060535699E-1,-3.386636972E-1,-4.052654654E-2
1.322426060E0,-2.246936858E-1,-3.473554254E-1,-4.049163684E-2
1.342279185E0,-2.564237714E-1,-3.144036233E-1,-3.052580915E-2
1.362132310E0,-2.851693332E-1,-2.843315899E-1,-2.937389165E-2
1.381983872E0,-3.029891551E-1,-2.707005739E-1,-3.998549283E-2
1.401836997E0,-3.095690608E-1,-2.846108377E-1,-6.607816368E-2
1.421690122E0,-3.619114757E-1,-1.969080418E-1,-5.152212083E-2
1.441543247E0,-3.697654605E-1,-1.888620704E-1,-6.422811747E-2
1.461394810E0,-3.729070425E-1,-1.727352291E-1,-7.986626774E-2
1.481247935E0,-3.900287151E-1,-1.275312006E-1,-8.108799905E-2
1.501101060E0,-4.264886677E-1,-5.126031861E-2,-6.126105785E-2
1.520952622E0,-4.573809803E-1,4.660028964E-3,-5.258677155E-2
1.540805747E0,-4.746422768E-1,2.666863054E-2,-4.937536269E-2
1.560657310E0,-4.779409468E-1,2.007128671E-3,-5.407030135E-2
1.580510435E0,-4.664392471E-1,-6.260495633E-2,-8.328711241E-2
1.600363560E0,-4.437674284E-1,-1.780061275E-1,-1.316676438E-1
1.620222935E0,-4.235739410E-1,-2.968455851E-1,-2.014808059E-1
1.640068247E0,-4.119849801E-1,-4.128925502E-1,-2.653424144E-1
1.659921372E0,-4.191408157E-1,-5.118003488E-1,-2.926044464E-1
1.679774497E0,-4.462283254E-1,-5.690122247E-1,-2.790606916E-1
1.699627622E0,-4.699997008E-1,-6.289992332E-1,-2.645046413E-1
1.719479185E0,-4.567701221E-1,-7.534935474E-1,-3.149446547E-1
1.739330747E0,-4.315501153E-1,-8.772548437E-1,-3.921405673E-1
1.759185435E0,-4.170813262E-1,-9.479406476E-1,-4.344124496E-1
1.779036997E0,-4.076216519E-1,-9.816953540E-1,-4.612381458E-1
1.798890122E0,-4.152138233E-1,-9.639104605E-1,-4.779235125E-1
1.818743247E0,-4.377809465E-1,-8.910254836E-1,-4.340110123E-1
1.838594810E0,-4.446924329E-1,-8.549844623E-1,-4.118627906E-1
1.858447935E0,-4.310788810E-1,-8.688074350E-1,-4.128925502E-1
1.878301060E0,-4.085117579E-1,-9.103114009E-1,-4.061032236E-1
1.898154185E0,-3.859795630E-1,-9.542238712E-1,-3.709173799E-1
1.918010435E0,-3.661700785E-1,-9.893398881E-1,-3.420670927E-1
1.937858872E0,-3.507413566E-1,-1.014856577E0,-3.602708578E-1
1.957711997E0,-3.765896857E-1,-9.262986183E-1,-3.418401778E-1
1.977563560E0,-4.296826124E-1,-7.491301894E-1,-1.963669956E-1
1.997416685E0,-4.308694303E-1,-7.380822897E-1,-1.695761830E-1
2.017269810E0,-4.147600532E-1,-7.890110016E-1,-2.151990980E-1
2.037122935E0,-3.916518688E-1,-8.590335846E-1,-2.692868412E-1
2.056974497E0,-3.711442649E-1,-9.165596366E-1,-3.252421021E-1
2.076827622E0,-3.662398756E-1,-9.381493926E-1,-3.650530577E-1
2.096679185E0,-3.668681979E-1,-9.307142496E-1,-3.766595125E-1
2.116536997E0,-3.578797579E-1,-9.259669781E-1,-3.757170141E-1
2.136385435E0,-3.382797241E-1,-9.143081903E-1,-3.444581926E-1
2.156236997E0,-2.932851315E-1,-9.046913981E-1,-2.382898033E-1
2.176090122E0,-2.604729235E-1,-8.562934399E-1,-1.333256960E-1
2.195943247E0,-2.546086311E-1,-7.789404392E-1,-1.180366203E-1
2.215796372E0,-2.545213699E-1,-7.020238042E-1,-1.071981192E-1
2.235647935E0,-2.536312342E-1,-6.046693325E-1,-5.489060655E-2
2.255499497E0,-2.396511585E-1,-5.127253532E-1,1.439896598E-2
2.275352622E0,-2.155132592E-1,-4.217588007E-1,8.644615859E-2
2.295205747E0,-1.888271719E-1,-3.311936855E-1,1.533795297E-1
2.315058872E0,-1.767494977E-1,-2.415012121E-1,1.772032827E-1
2.334911997E0,-1.777094305E-1,-1.458920687E-1,1.707455665E-1
2.354763560E0,-1.850921661E-1,-6.600835174E-2,1.419999897E-1
2.374616685E0,-2.065073550E-1,2.804744057E-2,1.400801241E-1
2.394468247E0,-2.329840064E-1,1.136034802E-1,1.645147353E-1
2.414321372E0,-2.409601510E-1,1.104618907E-1,1.514247656E-1
2.434174497E0,-2.502278686E-1,8.852309734E-2,1.431169957E-1
2.454027622E0,-2.587974072E-1,4.118977115E-2,1.248084977E-1
2.473879185E0,-2.599667907E-1,7.661995292E-2,4.355120063E-1
2.493732310E0,-2.925695479E-1,1.394343525E-1,7.500203252E-1
2.513585435E0,-3.554711938E-1,2.510307133E-1,9.538398981E-1
2.533436997E0,-4.149171114E-1,4.059286714E-1,1.162912846E0
2.553290122E0,-4.412192404E-1,4.806636870E-1,1.406037211E0
2.573143247E0,-4.331209064E-1,4.558799863E-1,1.701818228E0
2.592994810E0,-4.004832506E-1,3.312460482E-1,2.071531296E0
2.612852622E0,-3.675663471E-1,1.079486161E-1,2.470530987E0
2.632701060E0,-3.615275025E-1,-1.911310107E-1,2.919429779E0
2.652552622E0,-4.108504951E-1,-5.298296213E-1,3.330891132E0
2.672405747E0,-5.339311361E-1,-9.923418760E-1,3.583736897E0
2.692258872E0,-6.753900647E-1,-1.516394377E0,3.586756229E0
2.712111997E0,-7.624645233E-1,-1.826818705E0,3.323438406E0
2.731963560E0,-8.028339744E-1,-1.867275357E0,2.955156565E0
2.751816685E0,-8.447393775E-1,-1.794285774E0,2.543642759E0
2.771669810E0,-9.412385821E-1,-1.749116659E0,2.152095795E0
2.791522935E0,-1.094618201E0,-1.759989977E0,1.771509171E0
2.811374497E0,-1.278209329E0,-1.774877667E0,1.437121511E0
2.831227622E0,-1.453527689E0,-1.702725768E0,1.153313518E0
2.851080747E0,-1.582699418E0,-1.562977195E0,9.632821083E-1
2.870932310E0,-1.715379357E0,-1.378932238E0,7.930950522E-1
2.890785435E0,-1.815404177E0,-1.218903065E0,7.001388073E-1
2.910638560E0,-1.811215401E0,-1.125789762E0,7.863057256E-1
2.930490122E0,-1.845563531E0,-9.569291472E-1,7.173128724E-1
2.950343247E0,-1.891884565E0,-8.380547166E-1,6.158743501E-1
2.970196372E0,-1.926250100E0,-8.396080732E-1,5.592558384E-1
2.990049497E0,-1.930491209E0,-8.750731945E-1,5.252742767E-1
3.009901060E0,-1.920472980E0,-9.693034887E-1,5.076639056E-1
3.029754185E0,-1.904608011E0,-1.002045870E0,4.718323052E-1
3.049607310E0,-1.808684707E0,-8.725075722E-1,4.865454435E-1
3.069458872E0,-1.738155961E0,-6.922674179E-1,4.694761038E-1
3.089310435E0,-1.751996398E0,-4.889016151E-1,3.901858032E-1
3.109169810E0,-1.909320354E0,-1.845511198E-1,2.199289352E-1
3.129016685E0,-2.275560379E0,2.177647352E-1,-8.573057503E-2
3.148869810E0,-2.815914154E0,6.156648993E-1,-4.940852523E-1
3.168722935E0,-3.190985441E0,8.612676263E-1,-7.882605195E-1
3.188574497E0,-3.337104321E0,9.930574298E-1,-9.166468978E-1
3.208427622E0,-3.423655272E0,1.102524519E0,-1.012727261E0
3.228280747E0,-3.452470779E0,1.180645466E0,-1.096014380E0
3.248133872E0,-3.369096279E0,1.179563284E0,-1.125370860E0
3.267985435E0,-3.232855797E0,1.177817941E0,-1.086170793E0
3.287838560E0,-3.210044384E0,1.288314819E0,-1.112612486E0
3.307691685E0,-3.185714483E0,1.393453360E0,-1.152004600E0
3.327543247E0,-3.133214951E0,1.484419942E0,-1.167956829E0
3.347394810E0,-2.996224165E0,1.514299989E0,-1.088177919E0
3.367249497E0,-2.619512320E0,1.322819948E0,-8.447219133E-1
3.387101060E0,-2.098025322E0,1.017090559E0,-4.652698636E-1
3.406954185E0,-1.825055838E0,9.045866728E-1,-2.300169468E-1
3.426807310E0,-1.956130147E0,1.095595479E0,-1.718625724E-1
3.446665122E0,-2.638990164E0,1.669634342E0,-3.277728260E-1
3.466511997E0,-3.279386282E0,2.156615973E0,-5.674414635E-1
3.486365122E0,-3.363406420E0,2.225975513E0,-6.630854607E-1
3.506218247E0,-3.381592751E0,2.242259502E0,-7.248876095E-1
3.526069810E0,-3.187302828E0,2.110312462E0,-7.222870588E-1
3.545922935E0,-2.296591520E0,1.428691626E0,-4.333303571E-1
3.565776060E0,-3.656639159E-1,-1.633104533E-1,4.212003052E-1
3.585627622E0,8.711810708E-1,-1.157397628E0,1.095682740E0
3.605480747E0,4.471271515E0,-3.856287479E0,2.695643663E0
3.625332310E0,8.743628502E0,-7.866251469E0,3.740293026E0
3.645185435E0,8.769773483E0,-8.740033150E0,3.774780750E0
3.665038560E0,8.261114120E0,-8.940204620E0,3.724811792E0
3.684890122E0,7.441979408E0,-8.392694473E0,3.482280970E0
3.704743247E0,6.637260437E0,-7.625692368E0,3.146758795E0
3.724596372E0,5.680976868E0,-6.954089642E0,2.945452452E0
3.744447935E0,4.616256237E0,-6.176999569E0,2.784655333E0
3.764301060E0,3.732351780E0,-5.549134731E0,2.688365459E0
3.784154185E0,2.973308086E0,-4.957991600E0,2.608813524E0
3.804007310E0,2.443775177E0,-4.412209988E0,2.459326029E0
3.823858872E0,2.181783676E0,-4.059600830E0,2.259712696E0
3.843711997E0,2.005505562E0,-3.783437490E0,2.032488346E0
3.863565122E0,1.858985066E0,-3.606321573E0,1.823118567E0
3.883416685E0,1.749867082E0,-3.546159983E0,1.635181546E0
3.903269810E0,1.679408193E0,-3.648575783E0,1.461765647E0
3.923122935E0,1.680804372E0,-4.115591049E0,1.307967186E0
3.942976060E0,1.410941601E0,-3.895557404E0,1.292137027E0
3.962827622E0,6.469761133E-1,-1.815316916E0,1.442357540E0
3.982680747E0,-9.389871731E-3,6.304129213E-2,1.587760925E0
4.002533872E0,2.524095178E-1,-1.581722140E0,1.551196218E0
4.022385435E0,5.322905183E-1,-3.762022257E0,1.475291848E0
4.042238560E0,5.472130775E-1,-4.596062660E0,1.456930995E0
4.062091685E0,3.208089769E-1,-3.687968016E0,1.429075599E0
4.081943247E0,2.129476219E-1,-3.328849077E0,1.587307096E0
4.101802622E0,1.665567756E-1,-3.358572006E0,1.582018733E0
4.121649497E0,1.215098202E-1,-3.447880507E0,1.459531546E0
4.141507310E0,7.401940972E-2,-3.637562752E0,1.300217986E0
4.161354185E0,1.541125681E-2,-3.785671473E0,1.139717460E0
4.181207310E0,-6.167993695E-2,-3.865747213E0,9.636137486E-1
4.201060435E0,-1.186823919E-1,-4.048727512E0,7.999018431E-1
4.220911997E0,-1.381777227E-1,-3.964602709E0,6.994057894E-1
4.240765122E0,-1.100779176E-1,-4.569062710E0,5.714382529E-1
4.260618247E0,-3.708824515E-2,-4.078694820E0,5.696056485E-1
4.280471372E0,5.934119690E-4,-3.698300362E0,5.237035155E-1
4.300322935E0,-9.395107627E-2,-3.708074093E0,3.459067941E-1
4.320176060E0,-3.372325301E-1,-3.600457191E0,9.929177910E-2
4.340029185E0,-6.144605875E-1,-3.463780403E0,-1.279326379E-1
4.359880747E0,-7.449588776E-1,-3.573177576E0,-2.374345958E-1
4.379732310E0,-9.646434784E-1,-4.633605003E0,-3.574608862E-1
4.399586997E0,-1.680315733E0,-1.034962749E1,-6.351253390E-1
4.419444810E0,-1.415688872E0,-1.068904209E1,-7.123212218E-1
4.439291685E0,-8.785289526E-1,-9.115156174E0,-7.435800433E-1
4.459144810E0,-6.424207687E-1,-8.567279816E0,-8.158541322E-1
4.478996372E0,-5.321159959E-1,-7.973833561E0,-7.780852318E-1
4.498849497E0,-4.438197613E-1,-7.163215160E0,-6.353871226E-1
4.518702622E0,-3.249279559E-1,-5.929302216E0,-3.899589181E-1
4.538555747E0,-2.231054306E-1,-4.940451145E0,-2.081130594E-1
4.558407310E0,-1.628741324E-1,-4.482354641E0,-1.333606094E-1
4.578258872E0,-2.870543003E-1,-5.042169094E0,-3.138101846E-2
4.598118247E0,-1.796816438E-1,-4.234657288E0,7.747516781E-2
4.617965122E0,3.190985322E-1,-7.132636905E-1,7.799876481E-2
4.637816685E0,2.348165959E-1,-1.115998387E0,9.384635091E-2
4.657671372E0,1.024682820E-1,-1.866943836E0,1.119803265E-1
4.677522935E0,-6.606071442E-2,-2.932729006E0,1.132369637E-1
4.697374497E0,5.923647434E-2,-1.902984858E0,2.181661548E-3
4.717229185E0,1.319119781E-1,-1.503566265E0,-1.978854239E-1
4.737080747E0,1.695412844E-1,-1.214644432E0,-3.026750088E-1
4.756932310E0,1.176700965E-1,-1.345928073E0,-3.151715696E-1
4.776786997E0,-1.968556792E-1,-2.974198103E0,-3.201631904E-1
4.796638560E0,-5.775992870E-1,-4.672350883E0,-2.883109450E-1
4.816491685E0,-6.363121271E-1,-4.741954803E0,-5.171410739E-2
4.836344810E0,-3.578273952E-1,-2.019380808E0,1.680228412E-1
4.856196372E0,-7.075564563E-2,1.874797821E0,2.012015581E-1
4.876049497E0,4.443608224E-2,3.401454687E0,1.464331299E-1
4.895902622E0,1.001993492E-1,3.988775492E0,1.176351905E-1
4.915754185E0,3.553839326E-1,5.392578602E0,7.370525599E-2
4.935607310E0,4.460188746E-1,5.556133270E0,6.719517708E-2
4.955460435E0,5.255186558E-1,5.144968987E0,2.408554312E-3
4.975311997E0,5.614724159E-1,4.644705296E0,-4.665265232E-2
4.995165122E0,5.720491409E-1,4.205685139E0,-7.232644409E-2
5.015018247E0,6.035872102E-1,3.848765135E0,-9.288642555E-2
5.034869810E0,7.082895041E-1,3.735894680E0,-8.717919886E-2
5.054722935E0,7.501250505E-1,3.906046867E0,3.473205259E-3
5.074576060E0,7.757639289E-1,4.291799545E0,1.378984600E-1
5.094435435E0,8.279143572E-1,4.429802895E0,2.192308009E-1
5.114286997E0,7.759035826E-1,4.214219570E0,2.346420586E-1
5.134133872E0,6.636788845E-1,3.839584827E0,2.152165473E-1
5.153985435E0,4.351803958E-1,3.237987280E0,1.421570629E-1
5.173838560E0,2.468768209E-1,2.614468336E0,7.187265903E-2
5.193691685E0,2.075370997E-1,2.296155214E0,5.087634921E-2
5.213544810E0,2.085144818E-1,1.896579504E0,1.087340154E-2
5.233396372E0,-2.462659590E-2,9.203295708E-1,-1.271472424E-1
5.253249497E0,-4.577649534E-1,-3.552792072E-1,-2.283239663E-1
5.273102622E0,-5.869018435E-1,-8.708669543E-1,-1.951103508E-1
5.292954185E0,-5.824862123E-1,-9.656034112E-1,-1.373225003E-1
5.312807310E0,-6.865776181E-1,-1.754178047E0,-6.571164727E-2
5.332660435E0,-1.446616173E0,-9.576883316E0,1.225570217E-1
5.352513560E0,-1.453545094E0,-1.105310059E1,-7.119198143E-2
5.372365122E0,-1.274613976E0,-1.005836773E1,-2.637541592E-1
5.392218247E0,-1.008782864E0,-8.508846283E0,-2.811900079E-1
5.412071372E0,-6.084043384E-1,-6.374186516E0,-5.600761622E-2
5.431922935E0,-5.204571784E-2,-3.390843153E0,-4.661774263E-2
5.451776060E0,2.559350729E-1,-1.886107445E0,-1.313360184E-1
5.471627622E0,2.154957950E-1,-2.133507967E0,-7.346090674E-2
5.491480747E0,-2.408205271E-1,-4.605609894E0,1.056273282E-1
5.511333872E0,-4.027347267E-1,-5.357043743E0,1.954245120E-1
5.531191685E0,-3.733957410E-1,-5.009234428E0,1.968033314E-1
5.551038560E0,-3.567976654E-1,-4.689036369E0,2.103296220E-1
5.570890122E0,-4.402069449E-1,-4.898650646E0,2.681872845E-1
5.590749497E0,-3.889989853E-1,-4.432036877E0,2.489537597E-1
5.610596372E0,-3.447723389E-1,-4.063388348E0,2.368062735E-1
5.630449497E0,-3.154333532E-1,-3.817872763E0,2.296853215E-1
5.650302622E0,-2.957285941E-1,-3.684110880E0,2.289872020E-1
5.670160435E0,-2.501405776E-1,-3.350997210E0,2.308197916E-1
5.690007310E0,-1.662077010E-1,-2.632741928E0,2.309594154E-1
5.709860435E0,-5.167919770E-2,-1.372282624E0,2.158623189E-1
5.729713560E0,-1.989675313E-2,-2.609616220E-1,1.940806061E-1
5.749565122E0,-1.045940876E0,-5.483929157E0,1.526115835E-1
5.769418247E0,-1.162406683E0,-6.653421879E0,1.898394674E-1
5.789271372E0,-1.189110279E0,-9.136502266E0,1.668185741E-1
5.809129185E0,-1.256689429E0,-1.054824638E1,1.275835652E-2
5.828976060E0,-1.332244754E0,-1.135729408E1,-1.290321946E-1
5.848829185E0,-1.378844976E0,-1.174259281E1,-2.358812541E-1
5.868680747E0,-1.402092814E0,-1.182547855E1,-2.243097126E-1
5.888533872E0,-1.381061554E0,-1.150341225E1,1.063429117E-1
5.908386997E0,-1.271001101E0,-1.074220467E1,1.376366615E-1
5.928240122E0,-1.157921195E0,-9.842766762E0,1.300619394E-1
5.948097935E0,-1.056081295E0,-8.960171700E0,8.986700326E-2
5.967944810E0,-9.494067430E-1,-8.104227066E0,7.417649031E-2
5.987797935E0,-8.259421587E-1,-7.295720577E0,1.022762954E-1
6.007649497E0,-7.118849158E-1,-6.422358036E0,1.262047589E-1
6.027502622E0,-6.133610606E-1,-5.407431602E0,1.523323357E-1
6.047354185E0,-5.317494869E-1,-4.062881947E0,2.118131518E-1
6.067207310E0,-4.709770977E-1,-2.696254492E0,2.512924969E-1
6.087060435E0,-4.253541827E-1,-1.859229445E0,2.343977243E-1
6.106913560E0,-3.837106228E-1,-1.356173158E0,1.984962970E-1
6.126765122E0,-3.120997846E-1,-1.118057966E0,1.769938320E-1
6.146618247E0,-2.574535310E-1,-1.107725620E0,6.593853980E-2
6.166471372E0,-2.812249064E-1,-5.372123122E-1,-2.683792710E-1
6.186322935E0,3.963642567E-2,1.952779055E0,-2.582389116E-1
6.206176060E0,4.198389649E-1,4.201408863E0,-9.016370773E-2
6.226035435E0,6.957057118E-1,6.084671497E0,1.066570729E-1
6.245880747E0,8.061850071E-1,8.152711868E0,3.818780482E-1
6.265733872E0,7.717322111E-1,8.170008659E0,3.793298602E-1
6.285586997E0,7.250272036E-1,7.579476357E0,3.173357546E-1
6.305440122E0,7.083942294E-1,7.013710499E0,2.404365540E-1
6.325291685E0,7.316420078E-1,6.364709377E0,1.507789940E-1
6.345144810E0,7.642447948E-1,5.387970924E0,7.592181861E-2
6.364997935E0,9.112887383E-1,4.300840378E0,-2.790781483E-2
6.384849497E0,1.349610686E0,5.463456631E0,-1.868374944E-1
6.404702622E0,1.213509917E0,5.613432407E0,-2.084795833E-1
6.424555747E0,8.377231359E-1,3.396480560E0,-1.536064297E-1
6.444408872E0,5.847551227E-1,1.966200709E0,-9.990264475E-2
6.464260435E0,4.846081138E-1,1.155914068E0,-1.062556431E-1
6.484113560E0,3.966435194E-1,4.649382532E-1,-1.085594818E-1
6.503971372E0,3.614751399E-1,2.883458436E-1,-1.515818387E-1
6.523818247E0,3.335498869E-1,4.274311364E-1,-2.114291787E-1
6.543671372E0,2.572964430E-1,-1.147379428E-1,-1.875181794E-1
6.563524497E0,1.893856823E-1,-1.158165574E0,-1.108284071E-1
6.583382310E0,1.437104046E-1,-2.494668961E0,-9.948376566E-3
6.603229185E0,4.263839498E-2,-4.293893814E0,1.695063710E-1
6.623082310E0,-7.208209485E-2,-5.056515694E0,2.561619878E-1
6.642935435E0,-1.707804650E-1,-5.217312813E0,2.475924045E-1
6.662786997E0,-3.831346631E-1,-3.188367367E0,1.372526884E-1
6.682640122E0,-4.707676470E-1,-2.629565477E0,5.930628628E-2
6.702493247E0,-5.219581723E-1,-2.057394028E0,-4.045673087E-2
6.722344810E0,-5.596049428E-1,-1.752589822E0,-1.043706909E-1
6.742197935E0,-5.408949852E-1,-2.841849804E0,-9.402088821E-2
6.762051060E0,-5.219407082E-1,-3.661316872E0,-7.201228291E-2
6.781904185E0,-5.194623470E-1,-3.923377991E0,-8.292059600E-2
6.801755747E0,-4.185124934E-1,-4.754032612E0,1.124690175E-1
6.821608872E0,-3.364122212E-1,-4.849554539E0,2.822721004E-1
6.841461997E0,-3.009296656E-1,-4.536756516E0,3.970274925E-1
6.861313560E0,-2.690599561E-1,-4.202700615E0,4.385314286E-1
6.881166685E0,-2.157925069E-1,-3.842028141E0,5.274559259E-1
6.901019810E0,-1.591914743E-1,-3.447164774E0,6.340955496E-1
6.920871372E0,-1.285085976E-1,-3.086771965E0,6.475346088E-1
6.940724497E0,-1.012116447E-1,-2.793155193E0,6.171309948E-1
6.960577622E0,-9.611528367E-2,-2.530919313E0,5.300564766E-1
6.980429185E0,-2.127207220E-1,-2.216201544E0,2.406809032E-1
7.000282310E0,-2.443111837E-1,-2.140192509E0,1.909390278E-2
7.020135435E0,-2.291268259E-1,-2.242556095E0,-1.534842551E-1
7.039988560E0,-2.179567218E-1,-2.180544615E0,-2.169618756E-1
7.059840122E0,-2.041162550E-1,-1.971872926E0,-2.347293347E-1
7.079697935E0,-2.371204346E-1,-1.546571136E0,-2.793050408E-1
7.099546372E0,-2.656914592E-1,-9.128595591E-1,-3.151890039E-1
7.119397935E0,-2.914176285E-1,-7.599163800E-2,-3.444058299E-1
7.139251060E0,-3.137403727E-1,8.510050774E-1,-3.653497696E-1
7.159104185E0,-2.974041104E-1,1.568876505E0,-3.872187436E-1
7.178955747E0,-2.412568629E-1,2.392043591E0,-3.507413566E-1
7.198813560E0,-1.670105606E-1,3.551937103E0,-2.492155582E-1
7.218661997E0,-9.192649275E-2,5.037474155E0,-1.161691174E-1
7.238513560E0,3.804817796E-3,6.356995106E0,-6.136577576E-2
7.258366685E0,1.262396574E-1,7.211630821E0,-8.093091846E-2
7.278219810E0,3.657686412E-1,7.042176723E0,-2.708052993E-1
7.298071372E0,5.562887788E-1,4.253576756E0,-5.164080262E-1
7.317924497E0,4.044277072E-1,-6.508943558E0,-4.411145151E-1
7.337777622E0,5.042081475E-1,-5.826170921E0,-1.462062299E-1
7.357630747E0,5.186420679E-1,-5.424343586E0,-2.342231758E-2
7.377482310E0,4.428947568E-1,-4.584892750E0,-6.476917118E-2
7.397333872E0,3.818605840E-1,-2.031737804E0,-2.371378839E-1
7.417186997E0,3.749490678E-1,-9.808052182E-1,-2.599667907E-1
7.437040122E0,3.624525368E-1,-2.107135952E-1,-2.700024247E-1
7.456893247E0,3.796265721E-1,1.714908123E0,-3.631855547E-1
7.476744810E0,5.243842006E-1,1.190513515E1,-8.469210267E-1
7.496597935E0,3.543891013E-1,1.391449738E1,-8.734674454E-1
7.516451060E0,2.058441341E-1,1.319594574E1,-8.142833710E-1
7.536304185E0,1.588773280E-1,1.204917717E1,-7.502472401E-1
7.556155747E0,1.439023912E-1,1.125739098E1,-6.765768528E-1
7.576015122E0,1.410400569E-1,1.080041122E1,-5.701641440E-1
7.595861997E0,1.539205909E-1,1.115874481E1,-4.930729568E-1
7.615713560E0,1.192583442E-1,1.073918533E1,-3.641629517E-1
7.635566685E0,-2.479065657E-1,3.967482328E0,1.916895062E-1
7.655419810E0,-7.002959251E-1,-6.283185212E-4,3.300243020E-1
7.675271372E0,-4.250923991E-1,1.764039159E0,3.723485470E-1
7.695124497E0,4.008846879E-1,1.122656822E1,2.177298218E-1
7.714977622E0,2.904925942E-1,9.857078552E0,1.842020452E-1
7.734829185E0,2.816088796E-1,9.135384560E0,1.348266900E-1
7.754682310E0,4.300491214E-1,9.110112190E0,4.379031062E-2
7.774535435E0,7.533538938E-1,9.460958481E0,-3.586651757E-2
7.794388560E0,9.666331410E-1,9.295361519E0,-1.272345055E-2
7.814240122E0,9.628806710E-1,8.450866699E0,-9.878563695E-3
7.834093247E0,8.896117806E-1,7.481947422E0,-2.268928103E-2
7.853946372E0,8.388226628E-1,6.644346237E0,-3.502875939E-2
7.873797935E0,8.112813830E-1,5.991662979E0,-1.361356769E-2
7.893655747E0,9.132784605E-1,5.788908005E0,1.006531343E-1
7.913504185E0,8.008094430E-1,5.274803638E0,1.966636926E-1
7.933355747E0,4.864930809E-1,4.312848091E0,2.036799192E-1
7.953208872E0,9.724974632E-2,3.009750366E0,1.199041158E-1
7.973061997E0,-2.066120803E-1,1.782906175E0,1.082104165E-3
7.992915122E0,-2.623753548E-1,1.136732936E0,-8.091346174E-2
8.012766685E0,-2.189515531E-1,8.221373558E-1,-1.200786531E-1
8.032624497E0,-2.061757445E-1,4.873133898E-1,-1.680053920E-1
8.052472935E0,-2.218488008E-1,4.412192479E-2,-2.419724464E-1
8.072330747E0,-2.321113348E-1,-3.785444498E-1,-2.894628644E-1
8.092177622E0,-4.163832068E-1,-1.097864509E0,-3.316649199E-1
8.112030747E0,-5.922425985E-1,-1.847518325E0,-3.892782331E-1
8.131882310E0,-5.919109583E-1,-2.177315712E0,-4.057890475E-1
8.151735435E0,-5.499532223E-1,-2.339997768E0,-3.943571448E-1
8.171593247E0,-6.862634420E-1,-2.957547665E0,-5.150466561E-1
8.191441685E0,-7.281164527E-1,-3.278915167E0,-6.591759324E-1
8.211293247E0,-5.978800058E-1,-3.117437363E0,-7.204719186E-1
8.231146372E0,-3.950378299E-1,-2.760779142E0,-7.330557108E-1
8.250999497E0,-7.970918715E-2,-2.145376205E0,-6.239377260E-1
8.270851060E0,3.129200935E-1,-1.366924405E0,-5.039114356E-1
8.290704185E0,7.071725130E-1,-6.431363821E-1,-5.091125369E-1
8.310555747E0,6.364168525E-1,-7.046417594E-1,-4.032408595E-1
8.330408872E0,4.086339474E-1,-1.083168745E0,-2.942276001E-1
8.350261997E0,3.451388478E-1,-1.110378504E0,-1.821949184E-1
8.370113560E0,3.171612322E-1,-1.041926622E0,-8.782497048E-2
8.389966685E0,2.740341425E-1,-1.022885084E0,-7.522369176E-2
8.409819810E0,2.493028343E-1,-9.789028168E-1,-7.108726352E-2
8.429672935E0,1.913404465E-1,-1.065820217E0,-2.963045537E-1
8.449526060E0,2.169444263E-1,-8.973785043E-1,-3.519456387E-1
8.469377622E0,2.333330661E-1,-7.193025351E-1,-3.424161375E-1
8.489230747E0,2.122320384E-1,-6.117553711E-1,-3.112969100E-1
8.509082310E0,1.893682182E-1,-5.234416723E-1,-2.806838453E-1
8.528935435E0,1.713040620E-1,-4.516039491E-1,-2.509957850E-1
8.548788560E0,1.831374019E-1,-2.193355262E-1,-1.400103122E-1
8.568646372E0,2.075720131E-1,2.168048024E-1,7.424630970E-2
8.588499497E0,1.044579521E-1,3.319092691E-1,1.795071065E-1
8.608346372E0,-8.950048685E-2,1.218937933E-1,2.352354825E-1
8.628199497E0,-2.891137898E-1,-1.780934036E-1,2.965663373E-1
8.648051060E0,-3.690324128E-1,-2.222327739E-1,2.987829149E-1
8.667904185E0,-5.514542460E-1,-7.174175978E-1,2.491457462E-1
8.687755747E0,-5.112767220E-1,-5.032831430E-1,1.820727438E-1
8.707608872E0,-4.583583772E-1,-2.391101122E-1,1.084198505E-1
8.727461997E0,-3.278600872E-1,2.822197378E-1,1.076169983E-1
8.747313560E0,-1.413716674E-1,1.020982742E0,1.282991469E-1
8.767168247E0,-3.675663471E-2,1.518523693E0,1.523846984E-1
8.787019810E0,2.539454028E-2,1.888411283E0,1.725432426E-1
8.806872935E0,1.779014170E-1,2.605078459E0,2.031039596E-1
8.826724497E0,3.649308980E-1,3.424720049E0,2.345024347E-1
8.846577622E0,3.696083724E-1,3.592812538E0,2.471909821E-1
8.866430747E0,3.584557176E-1,3.644317389E0,2.656216621E-1
8.886282310E0,4.024205506E-1,4.060840130E0,3.603930473E-1
8.906135435E0,3.824889064E-1,3.983225346E0,3.726976216E-1
8.925988560E0,1.729970276E-1,3.300958633E0,3.547381759E-1
8.945841685E0,-1.896300167E-1,2.108340263E0,3.321710527E-1
8.965693247E0,-3.397283256E-1,1.117726326E0,2.296504229E-1
8.985546372E0,-2.936342061E-1,1.034386873E0,2.013062686E-1
9.005399497E0,-2.608045638E-1,9.260019064E-1,1.715134978E-1
9.025251060E0,-2.482032776E-1,6.275680661E-1,1.274439394E-1
9.045104185E0,-2.468593717E-1,2.019869536E-1,9.098401666E-2
9.064963560E0,-2.563888729E-1,-2.930582464E-1,8.847074211E-2
9.084808872E0,-4.690223336E-1,-1.816364169E0,8.150687814E-2
9.104661997E0,-6.798755527E-1,-3.920725107E0,-1.382300723E-2
9.124515122E0,-6.578844190E-1,-4.564332485E0,-7.581710070E-2
9.144372935E0,-5.982115865E-1,-4.823095322E0,-1.611811519E-1
9.164219810E0,-5.076988339E-1,-4.794785976E0,-4.244815111E-1
9.184072935E0,-5.168268681E-1,-4.992392063E0,-5.722759962E-1
9.203926060E0,-4.590215981E-1,-4.802343369E0,-5.991889834E-1
9.223777622E0,-3.317870796E-1,-4.364457607E0,-5.285904408E-1
9.243630747E0,-6.105161831E-2,-3.386706591E0,-4.065220952E-1
9.263483872E0,1.647241712E-1,-2.511406660E0,-3.800629079E-1
9.283341685E0,3.353824615E-1,-1.810517311E0,-3.622954488E-1
9.303188560E0,5.548576117E-1,-9.414131641E-1,-2.598271668E-1
9.323041685E0,5.525014400E-1,-9.542238712E-1,-9.353219718E-2
9.342894810E0,5.385213494E-1,-1.015624523E0,5.256931856E-2
9.362746372E0,4.504869282E-1,-1.279029608E0,9.379399568E-2
9.382599497E0,3.176673651E-1,-1.758052707E0,1.851270795E-1
9.402452622E0,2.529505789E-1,-1.846523404E0,2.160892189E-1
9.422304185E0,2.190562785E-1,-1.771648765E0,2.263692021E-1
9.442157310E0,1.938188076E-1,-1.610345483E0,1.917942315E-1
9.462010435E0,1.691223979E-1,-1.456093311E0,1.466076523E-1
9.481861997E0,1.493478268E-1,-1.343327522E0,1.199041158E-1
9.501713560E0,1.300793886E-1,-1.317339659E0,9.590584040E-2
9.521568247E0,9.889035672E-2,-1.361618638E0,9.889035672E-2
9.541421372E0,8.175121993E-2,-1.209705114E0,1.045626774E-1
9.561279185E0,1.526988596E-1,-4.199785888E-1,1.190140024E-1
9.581126060E0,3.896447420E-1,2.145812511E0,-2.722713631E-3
9.600979185E0,3.659082651E-1,3.204040527E0,-9.457939118E-2
9.620830747E0,2.497566119E-2,1.092925191E0,1.055575162E-1
9.640683872E0,-3.922627568E-1,-1.842264891E0,1.876228899E-1
9.660536997E0,-4.829151630E-1,-2.097571611E0,1.405164599E-1
9.680390122E0,-5.382071733E-1,-2.172201872E0,8.943066746E-2
9.700241685E0,-6.086486578E-1,-2.517637491E0,4.101523757E-2
9.720094810E0,-5.683839321E-1,-2.212431669E0,4.146902263E-2
9.739947935E0,-4.486543238E-1,-9.882577658E-1,8.965755999E-2
9.759799497E0,-2.549751401E-1,2.581795692E0,1.968556792E-1
9.779652622E0,2.708227336E-1,1.071853828E1,3.698003590E-1
9.799504185E0,6.583032608E-1,1.214236069E1,3.291167319E-1
9.819357310E0,7.861137390E-1,1.074967480E1,1.858426630E-1
9.839208872E0,8.089077473E-1,9.531260490E0,1.057844087E-1
9.859063560E0,7.944564223E-1,8.513611794E0,6.389650702E-2
9.878916685E0,8.224340677E-1,7.596842289E0,1.197295822E-2
9.898768247E0,8.310036063E-1,6.825057507E0,-9.459684603E-3
9.918619810E0,7.940375209E-1,6.211417198E0,-8.395033889E-3
9.938472935E0,7.213969231E-1,5.661655903E0,-6.213372108E-3
9.958326060E0,4.711690843E-1,5.308890343E0,9.354964830E-3
9.978183872E0,2.058441341E-1,4.816061497E0,-3.522074595E-2
9.998030747E0,7.946483791E-2,3.899606705E0,-1.446179748E-1
1.001788387E1,5.503023043E-2,3.430776358E0,-1.524370611E-1
1.003773700E1,-1.989675453E-3,2.965087414E0,-1.737998873E-1
1.005759481E1,-1.106538773E-1,2.524461746E0,-2.191435397E-1
1.007744168E1,-1.557706296E-1,2.181085587E0,-2.549053431E-1
1.009729481E1,-1.774825305E-1,2.172690630E0,-2.637716234E-1
1.011714637E1,-1.778315902E-1,2.903826475E0,-2.402620167E-1
1.013699950E1,-6.229080260E-2,5.868442535E0,-1.257335246E-1
1.015685106E1,2.825688124E-1,1.179428959E1,2.421818823E-1
1.017670418E1,3.662922382E-1,1.334456062E1,4.695284665E-1
1.019655731E1,2.987130880E-1,1.287082577E1,5.564807653E-1
1.021641044E1,2.115164548E-1,1.167009163E1,5.971469283E-1
1.023626200E1,2.213077545E-1,1.024167919E1,5.382769704E-1
1.025611512E1,3.095341325E-1,9.314298630E0,3.921580315E-1
1.027596825E1,4.880115092E-1,9.405754089E0,1.379508227E-1
1.029582137E1,4.482005537E-1,9.778591156E0,7.051130291E-3
1.031567294E1,4.201356471E-1,1.008562946E1,-1.323308647E-1
1.033552606E1,3.596948981E-1,1.055370903E1,-2.922204733E-1
1.035537918E1,3.238981962E-1,1.017209339E1,-3.774448931E-1
1.037523075E1,3.207566142E-1,9.064768791E0,-3.632379174E-1
1.039508387E1,3.197966814E-1,7.682171345E0,-2.993588746E-1
1.041493700E1,3.517187536E-1,5.906438351E0,-1.509360671E-1
1.043479012E1,3.497639894E-1,4.433101177E0,-2.576106042E-2
1.045464168E1,3.160965741E-1,3.895208359E0,-1.139700040E-2
1.047449481E1,2.792875767E-1,3.543786287E0,-1.130973361E-2
1.049434794E1,2.448347807E-1,3.304798365E0,-1.965240762E-2
1.051419950E1,1.885828227E-1,2.858255863E0,-1.027998887E-2
1.053405731E1,1.515294909E-1,1.947316170E0,7.677703351E-2
1.055390575E1,1.370083392E-1,1.378391266E0,1.435184181E-1
1.057375731E1,1.145808622E-1,1.457123041E0,1.379508227E-1
1.059361044E1,1.422792375E-1,1.918186665E0,1.571494490E-1
1.061346356E1,1.652477682E-1,4.176154137E0,6.010913849E-2
1.063331668E1,7.700392604E-2,7.693673134E0,-2.028247118E-1
1.065316825E1,1.357866172E-2,9.060073853E0,-3.260100484E-1
1.067302137E1,-1.563465893E-1,4.981553555E0,9.716247767E-2
1.069287450E1,-2.996555865E-1,1.424747229E0,2.781007588E-1
1.071272606E1,-3.726626933E-1,9.439089894E-1,2.798111737E-1
1.073257762E1,-4.935441911E-1,-2.094046116E0,2.633527219E-1
1.075243231E1,-4.942772388E-1,1.440420300E-1,2.673669755E-1
1.077228387E1,-1.357866228E-1,1.000141716E1,3.359584212E-1
1.079213700E1,-5.457644537E-2,9.725358963E0,2.663372457E-1
1.081199012E1,1.414414793E-1,9.508099556E0,1.530479193E-1
1.083184325E1,2.727949619E-1,9.069987297E0,1.343205422E-1
1.085169481E1,3.154333532E-1,8.219628334E0,9.936159104E-2
1.087154794E1,3.655417562E-1,7.408730507E0,5.637413636E-2
1.089140106E1,4.819726646E-1,6.721419811E0,4.293509759E-3
1.091125262E1,5.349085331E-1,6.103032589E0,-1.256637089E-2
1.093110575E1,5.326570272E-1,5.593518257E0,7.330382708E-3
1.095095887E1,5.169315934E-1,5.184273720E0,4.612905160E-2
1.097081044E1,4.613777995E-1,4.790736675E0,8.215264976E-2
1.099066356E1,2.108706832E-1,4.790457726E0,2.038893551E-1
1.101051668E1,7.400196046E-3,4.370304585E0,1.877974272E-1
1.103036825E1,-2.740166895E-2,3.859289408E0,1.507266313E-1
1.105022606E1,-2.982767671E-2,3.409273863E0,1.281595230E-1
1.107007294E1,-4.857251421E-2,2.803016186E0,7.237880677E-2
1.108992606E1,-7.754497975E-2,2.230618000E0,1.932079531E-2
1.110977918E1,-1.138129234E-1,1.637118816E0,-4.721115530E-2
1.112963231E1,-1.331686229E-1,1.315262675E0,-6.640977412E-2
1.114948544E1,-2.910511196E-1,1.657085419E0,-1.518436428E-2
1.116933700E1,-3.473030627E-1,2.108829021E0,2.469640970E-2
1.118919012E1,-3.362376690E-1,1.882651806E0,-5.759586580E-3
1.120904168E1,-8.160112500E-1,-5.798559666E0,-5.875127316E-1
1.122889481E1,-7.487462759E-1,-1.053081036E1,-1.110989332E0
1.124874794E1,-5.618913174E-1,-9.700347900E0,-1.130571961E0
1.126859950E1,-4.014780819E-1,-8.436520576E0,-9.725847244E-1
1.128845262E1,-1.809033751E-1,-6.370626450E0,-6.796835661E-1
1.130830575E1,7.684684545E-2,-3.994953871E0,-4.420744479E-1
1.132815731E1,2.222327739E-1,-2.587415695E0,-3.081727922E-1
1.134801044E1,3.477219343E-1,-1.112088919E0,-1.740093231E-1
1.136786356E1,5.283809900E-1,7.619409561E-1,-8.504989743E-2
1.138771512E1,5.462182164E-1,1.540165782E0,-5.759586580E-3
1.140756825E1,4.529129267E-1,1.289990306E0,4.263839498E-2
1.142742137E1,3.582811952E-1,1.144464731E0,9.641198814E-2
1.144727450E1,2.959205806E-1,9.909630418E-1,1.157153323E-1
1.146712606E1,2.320938855E-1,5.519254804E-1,1.151219159E-1
1.148697919E1,1.884781122E-1,1.606401056E-1,9.735446423E-2
1.150683231E1,1.563116908E-1,-1.083674952E-1,7.955210656E-2
1.152668387E1,1.322959512E-1,-2.190562785E-1,7.162830979E-2
1.154653700E1,1.116487086E-1,-3.929608762E-1,3.640756756E-2
1.156639012E1,1.000422761E-1,1.139525473E-1,3.179989755E-2
1.158624169E1,1.003389806E-1,8.257152438E-1,2.761110850E-2
1.160609481E1,1.174781099E-1,1.328649282E0,4.101523664E-3
1.162594794E1,3.114539981E-1,2.523781061E0,-2.040289901E-2
1.164580106E1,3.367961943E-1,2.679237366E0,-2.055997774E-2
1.166565262E1,1.724385321E-1,2.511633396E0,2.705260366E-2
1.168550575E1,-2.343453616E-1,2.241456509E0,1.461364180E-1
1.170535887E1,-4.278151095E-1,1.771142721E0,1.659459025E-1
1.172521044E1,-6.313554049E-1,6.599613428E-1,1.196248680E-1
1.174506356E1,-7.594799995E-1,-3.424161375E-1,4.262094200E-2
1.176491669E1,-6.056118011E-1,3.586826026E-1,4.991641641E-2
1.178476981E1,-3.156428039E-1,9.748710990E-1,2.809980139E-2
1.180462137E1,-7.454301417E-2,1.197662354E0,-5.916666240E-3
1.182447450E1,-1.876228862E-2,1.313220620E0,2.172934823E-2
1.184432762E1,7.660250366E-2,1.635757446E0,1.106713265E-1
1.186417919E1,2.822546363E-1,2.266501904E0,3.034778535E-1
1.188403231E1,4.522322714E-1,2.596264601E0,4.516213834E-1
1.190388544E1,4.933696687E-1,2.575704575E0,5.061105490E-1
1.192373700E1,4.683416486E-1,2.355601072E0,4.876450002E-1
1.194359012E1,4.404512942E-1,2.153928280E0,4.705058634E-1
1.196344325E1,3.997502029E-1,1.885234833E0,4.249353111E-1
1.198329481E1,3.323805034E-1,1.497632146E0,3.371452391E-1
1.200314794E1,2.693043090E-2,7.878590822E-1,1.194503307E-1
1.202300106E1,-1.513025910E-1,-5.009094998E-2,-1.160120368E-1
1.204285887E1,-1.962797344E-1,-6.441311836E-1,-2.677684128E-1
1.206270575E1,-1.894380301E-1,-7.723081708E-1,-2.632130980E-1
1.208255731E1,-1.861568242E-1,-9.418320060E-1,-2.684665322E-1
1.210241044E1,-1.859473735E-1,-1.046935797E0,-2.403492928E-1
1.212226356E1,-2.004510611E-1,-1.158409953E0,-2.026327252E-1
1.214211669E1,-2.412743121E-1,-1.341756821E0,-1.694365591E-1
1.216196981E1,-3.154158890E-1,-1.619944811E0,-1.477944851E-1
1.218182137E1,-5.202128291E-1,-2.310309887E0,-1.733461022E-1
1.220167450E1,-6.502049565E-1,-3.279735565E0,-2.702118754E-1
1.222152762E1,-6.430141926E-1,-3.891944647E0,-3.317521811E-1
1.224138075E1,-6.397329569E-1,-4.532270908E0,-4.232772589E-1
1.226123231E1,-6.623001099E-1,-5.420992851E0,-6.673790216E-1
1.228108544E1,-5.293409228E-1,-5.203088284E0,-6.646737456E-1
1.230093856E1,-2.276781946E-1,-4.208215714E0,-5.178741217E-1
1.232079012E1,9.758135676E-2,-3.198926687E0,-4.293859005E-1
1.234064325E1,3.135309517E-1,-2.553957701E0,-3.658384681E-1
1.236049637E1,5.031958818E-1,-1.888027310E0,-2.506641746E-1
1.238034794E1,6.562961340E-1,-1.281158924E0,-1.324530393E-1
1.240020106E1,6.472378969E-1,-1.177119851E0,-6.761405617E-2
1.242005419E1,5.607917309E-1,-1.360519052E0,-3.722787276E-2
1.243990731E1,4.196295142E-1,-1.587952852E0,7.051130384E-2
1.245975887E1,2.276781946E-1,-1.936844230E0,1.998925656E-1
1.247961200E1,2.145533264E-1,-1.841304898E0,1.870294809E-1
1.249946512E1,1.980774105E-1,-1.751664758E0,1.622458100E-1
1.251931669E1,1.809033751E-1,-1.616454124E0,1.340063810E-1
1.253917450E1,1.963320822E-1,-1.501192570E0,-5.115560070E-2
1.255902137E1,2.062106431E-1,-1.304581285E0,-1.252448261E-1
1.257887450E1,1.822821796E-1,-1.158933520E0,-1.228711754E-1
1.259872762E1,1.635373533E-1,-1.010929585E0,-1.121548563E-1
1.261858075E1,1.326624751E-1,-9.232966304E-1,-8.939576149E-2
1.263843231E1,1.656317413E-1,-6.122266054E-1,-3.284709528E-2
1.265828544E1,2.531251013E-1,1.370083448E-2,3.942698613E-2
1.267813700E1,1.993166059E-1,2.119527906E-1,5.817182362E-2
1.269799012E1,-1.117010694E-2,-1.002342552E-1,1.176700965E-1
1.271784325E1,-2.783625722E-1,-7.725874186E-1,1.572018117E-1
1.273769637E1,-4.224220514E-1,-1.109820008E0,7.068583369E-2
1.275754794E1,-4.858822227E-1,-1.218711019E0,-7.667231560E-2
1.277740106E1,-4.402244091E-1,-8.392764926E-1,-1.225919276E-1
1.279725419E1,-4.580616653E-1,-6.996675730E-1,-1.512676924E-1
1.281710575E1,-3.825936317E-1,-1.577603072E-1,-1.243896186E-1
1.283695887E1,-2.305405438E-1,7.827801704E-1,-6.415830553E-2
1.285681200E1,-2.822197415E-2,2.010060787E0,-3.822271014E-3
1.287666356E1,1.250353903E-1,2.973971128E0,3.764675185E-2
1.289651668E1,2.968805134E-1,3.851889372E0,4.879940674E-2
1.291636981E1,4.094716907E-1,4.400184631E0,6.295402348E-2
1.293622137E1,4.595277309E-1,4.670274258E0,8.272860944E-2
1.295607450E1,4.810127318E-1,4.826097012E0,1.129577085E-1
1.297592762E1,4.929507971E-1,4.895177364E0,1.458222568E-1
1.299578075E1,4.765447080E-1,4.689821720E0,1.498365104E-1
1.301563231E1,3.992266059E-1,4.221549988E0,1.255240738E-1
1.303548544E1,1.389631182E-1,3.189484358E0,4.462806880E-2
1.305533856E1,-1.701696068E-1,2.017007113E0,-2.815216035E-2
1.307519012E1,-2.940007150E-1,6.928607821E-1,-1.777268797E-1
1.309504325E1,-2.561619878E-1,3.438473046E-1,-2.332632542E-1
1.311489637E1,-2.442588210E-1,5.206317082E-2,-2.488490492E-1
1.313474794E1,-2.412743121E-1,-3.822794557E-1,-2.652376890E-1
1.315460106E1,-2.293711752E-1,-7.600385547E-1,-2.438399494E-1
1.317445262E1,-2.197544128E-1,-1.096485615E0,-1.908342987E-1
1.319430575E1,-2.153387219E-1,-1.528611660E0,-1.324879378E-1
1.321415887E1,-2.328618318E-1,-2.143875122E0,-7.199483365E-2
1.323401200E1,-5.016599894E-1,-5.743354797E0,-6.546729803E-2
1.325386512E1,-5.706703067E-1,-7.649586201E0,-1.980425119E-1
1.327371825E1,-5.123239756E-1,-7.467164516E0,-2.398256958E-1
1.329356825E1,-4.391771853E-1,-6.960914135E0,-2.586577833E-1
1.331342294E1,-2.968455851E-1,-5.916980267E0,-2.530378401E-1
1.333327606E1,-3.750712425E-2,-4.252320290E0,-1.963495463E-1
1.335312762E1,1.087863743E-1,-3.270677090E0,-1.950754523E-1
1.337298075E1,1.705012172E-1,-2.952695608E0,-1.291892678E-1
1.339283387E1,3.512998819E-1,-2.024930954E0,1.240230948E-1
1.341268544E1,3.556282818E-1,-2.224265099E0,2.726378739E-1
1.343253856E1,4.325100482E-1,-1.570220351E0,2.703340352E-1
1.345239168E1,4.407305419E-1,-1.355824113E0,2.479589283E-1
1.347224325E1,3.768165708E-1,-1.649126649E0,2.501231432E-1
1.349209637E1,2.260201424E-1,-2.411678553E0,2.639112473E-1
1.351194950E1,1.293114424E-1,-2.526242018E0,2.005557865E-1
1.353180731E1,1.154884398E-1,-2.296591520E0,1.742362231E-1
1.355165262E1,1.224348471E-1,-1.838896394E0,1.014908925E-1
1.357150731E1,1.645496339E-1,-9.327563047E-1,-9.677850455E-2
1.359136044E1,1.777966917E-1,-4.723384678E-1,-1.679181308E-1
1.361121200E1,1.617920250E-1,-3.969053328E-1,-1.584584415E-1
1.363106512E1,1.453510225E-1,-3.483677208E-1,-1.461713314E-1
1.365091825E1,1.241103634E-1,-2.453583926E-1,-1.295732409E-1
1.367077137E1,1.011592820E-1,-5.412266031E-2,-8.471827954E-2
1.369062294E1,1.737300754E-1,1.170295596E0,4.188790335E-4
1.371047606E1,2.829178572E-1,5.437520981E0,-2.273814976E-1
1.373032918E1,2.204001844E-1,7.195974827E0,-3.321536183E-1
1.375018075E1,-6.046169400E-1,-7.890266895E0,4.598768055E-1
1.377003387E1,-9.215512872E-1,-6.903964043E0,7.342600077E-2
1.378988544E1,-6.259448528E-1,-6.544251442E0,1.608669907E-1
1.380973856E1,2.881538570E-1,1.546384430E1,-1.118057892E-1
1.382959168E1,9.274679422E-2,9.785676956E0,-1.292416304E-1
1.384944325E1,7.183775306E-2,8.907898903E0,-1.147030368E-1
1.386929637E1,1.562244147E-1,7.931474209E0,-1.986533701E-1
1.388914950E1,3.674790859E-1,7.453445911E0,-2.822546363E-1
1.390900106E1,4.578696787E-1,7.072388172E0,-2.537708580E-1
1.392885418E1,5.005953312E-1,6.573067188E0,-2.142042518E-1
1.394870731E1,5.303183198E-1,5.984768867E0,-1.898045540E-1
1.396855887E1,5.470385551E-1,5.405721188E0,-1.697856337E-1
1.398841200E1,5.335646272E-1,4.985079288E0,-1.238136590E-1
1.400826512E1,4.700520635E-1,4.757261276E0,-4.799655452E-2
1.402812294E1,3.157300651E-1,4.266754150E0,-4.461061582E-2
1.404796981E1,1.943947673E-1,3.640268087E0,-8.019787818E-2
1.406782294E1,1.048768312E-1,3.151610851E0,-1.004611477E-1
1.408767606E1,2.757620299E-3,2.826979637E0,-1.042136103E-1
1.410752762E1,-9.550441802E-2,2.755002260E0,-7.522369176E-2
1.412738075E1,-9.173450619E-2,2.504844189E0,-6.494370103E-2
1.414723387E1,-9.585348517E-2,2.338793516E0,-5.956808850E-2
1.416708544E1,-1.222428605E-1,2.358306408E0,-5.670574680E-2
1.418693856E1,-2.870891988E-1,3.273173094E0,-4.194026068E-2
1.420679168E1,-2.970375717E-1,4.425457001E0,-4.338888451E-2
1.422664325E1,-1.863837093E-1,6.313955307E0,-1.197295822E-2
1.424649637E1,1.205673441E-1,9.617008209E0,1.479341090E-1
1.426634950E1,5.374566913E-1,1.368774414E1,4.684289098E-1
1.428620106E1,-5.715080500E-1,-1.490095806E1,-7.647508979E-1
1.430605418E1,-3.523819745E-1,-1.213824177E1,-6.707998514E-1
1.432590731E1,-2.179392576E-1,-1.029854202E1,-5.527632236E-1
1.434575887E1,-1.564687639E-1,-8.448894501E0,-3.527834117E-1
1.436561200E1,-2.054252476E-2,-5.537109375E0,-1.395041645E-1
1.438546512E1,2.224247605E-1,-2.755717754E0,-6.288421154E-2
1.440531825E1,4.994259775E-1,-9.997594953E-1,-6.003932655E-2
1.442517137E1,3.247534037E-1,-1.083971620E0,9.407324716E-3
1.444502294E1,1.124341115E-1,-1.959219337E0,7.407177240E-2
1.446487606E1,1.130973361E-2,-2.192692041E0,1.120152324E-1
1.448472918E1,1.090830751E-2,-1.847134352E0,9.606292099E-2
1.450458075E1,1.226966456E-2,-1.609978914E0,7.847000659E-2
1.452443856E1,2.829178795E-2,-1.821094036E0,3.471459821E-2
1.454428700E1,7.977899909E-2,-2.647716761E0,-8.408996463E-2
1.456414325E1,8.723155409E-2,-2.083975554E0,-1.153139025E-1
1.458399168E1,3.848451003E-2,-1.068071723E0,-1.067966968E-1
1.460384325E1,-4.031710327E-3,-5.420992523E-2,-1.306553483E-1
1.462369637E1,-1.368338149E-2,6.628760695E-1,-1.739220619E-1
1.464354950E1,-2.522000670E-2,1.115003586E0,-1.932952106E-1
1.466340262E1,-1.136907488E-1,1.675934911E0,-1.349837631E-1
1.468325575E1,-2.271720618E-1,2.122372627E0,-6.414084882E-2
1.470310731E1,-3.306002617E-1,2.138778925E0,-2.869321220E-2
1.472296044E1,-4.060159326E-1,1.844935179E0,-2.818706818E-2
1.474281356E1,-3.788760602E-1,1.600362182E0,-5.347688869E-2
1.476266512E1,-3.177720904E-1,1.281525493E0,-1.022239327E-1
1.478251825E1,-3.754901290E-1,7.226535678E-1,-1.645845473E-1
1.480236981E1,-3.297450542E-1,1.218798280E0,-9.009389579E-2
1.482222450E1,-1.591740251E-1,1.843870521E0,8.726646192E-3
1.484207450E1,7.564257085E-2,2.160700083E0,7.976154983E-2
1.486192919E1,2.467895597E-1,2.253586531E0,1.295557916E-1
1.488178231E1,3.676885068E-1,2.322247744E0,1.873610914E-1
1.490163387E1,3.894353211E-1,2.461175919E0,2.715906799E-1
1.492148544E1,3.762755394E-1,2.824378967E0,4.277103841E-1
1.494134012E1,3.563787639E-1,2.997690201E0,5.288172960E-1
1.496119169E1,3.189938366E-1,2.787639856E0,5.034402013E-1
1.498104325E1,2.171887755E-1,2.422726393E0,4.036946595E-1
1.500089637E1,1.445132587E-2,1.766779304E0,1.808859259E-1
1.502075575E1,-1.611811519E-1,1.218012929E0,6.283185445E-3
1.504060106E1,-1.571319848E-1,7.138396502E-1,-9.747663885E-2
1.506045419E1,-1.742711216E-1,5.173330307E-1,-1.285784096E-1
1.508030887E1,-3.183480501E-1,1.445132643E-1,-2.280272692E-1
1.510016044E1,-3.493276536E-1,-2.460914291E-2,-2.378011048E-1
1.512001200E1,-3.401297629E-1,-1.463109553E-1,-2.203478217E-1
1.513986512E1,-3.725230694E-1,-2.088111937E-1,-1.933475733E-1
1.515971825E1,-4.161912203E-1,-9.559167922E-2,-1.486147791E-1
1.517957137E1,-4.287226796E-1,-2.610139847E-1,-1.291543692E-1
1.519942294E1,-4.609065354E-1,-1.334600925E0,-1.668185741E-1
1.521927606E1,-5.603030324E-1,-8.873934746E0,-5.029340982E-1
1.523912762E1,-4.319689870E-1,-1.155767536E1,-7.097381353E-1
1.525898075E1,-3.410198689E-1,-1.098049450E1,-6.932273507E-1
1.527883387E1,-2.593559325E-1,-1.001724720E1,-6.067637205E-1
1.529868544E1,-2.631956525E-2,-7.492035389E0,-4.314279258E-1
1.531853856E1,1.483878940E-1,-5.882928848E0,-3.709522784E-1
1.533839169E1,2.324953079E-1,-5.119382381E0,-3.039490879E-1
1.535824481E1,3.343876302E-1,-4.133149147E0,-2.064375430E-1
1.537809637E1,3.998549283E-1,-3.303000689E0,-5.571090803E-2
1.539794950E1,3.666762114E-1,-3.401454687E0,4.895648360E-2
1.541780262E1,5.632700920E-1,-8.618086576E-1,7.630579174E-2
1.543765575E1,5.424832106E-1,-9.197885394E-1,2.478367463E-2
1.545750731E1,4.593706429E-1,-1.411028862E0,6.222098693E-2
1.547736044E1,3.982143104E-1,-1.586783528E0,7.833037525E-2
1.549721356E1,3.579844832E-1,-1.457716465E0,7.298967242E-2
1.551706981E1,3.127106428E-1,-1.370257974E0,6.487388909E-2
1.553691825E1,2.659358084E-1,-1.324024200E0,6.110397726E-2
1.555677137E1,2.285683155E-1,-1.264211774E0,2.068215236E-2
1.557662450E1,1.909739226E-1,-1.203753591E0,-2.354449220E-2
1.559647606E1,1.455430090E-1,-1.034159899E0,-5.752605200E-2
1.561632919E1,9.079203010E-2,-7.340855002E-1,-5.893976986E-2
1.563618075E1,3.982841223E-2,-1.418254524E-1,-1.132718660E-2
1.565603387E1,1.001993492E-1,2.694439173E0,-4.527384043E-2
1.567588700E1,1.786693484E-1,5.816397190E0,-2.416059226E-1
1.569573856E1,1.751088798E-1,6.570484161E0,-3.007551432E-1
1.571559169E1,1.359960586E-1,6.571024895E0,-2.937389016E-1
1.573544481E1,-3.471459821E-2,7.022646427E0,-1.996307522E-1
1.575529794E1,-2.345024347E-1,7.213952065E0,-1.175828278E-1
1.577514950E1,-5.258851647E-1,3.584470034E0,-4.932300374E-2
1.579500262E1,-6.121568084E-1,3.732910156E-1,-1.070235893E-1
1.581485575E1,-3.819653094E-1,3.696153641E0,-1.143539697E-1
1.583470731E1,-3.269525170E-1,4.249213696E0,-9.145525098E-2
1.585456044E1,-2.618168294E-1,4.288361073E0,-8.136724681E-2
1.587441200E1,-4.291764647E-2,4.565641880E0,-1.961750165E-2
1.589426512E1,1.699601561E-1,4.270907879E0,3.804817796E-3
1.591411825E1,3.391349316E-1,4.084436893E0,6.201154739E-2
1.593396981E1,4.244640768E-1,3.913935661E0,1.284736842E-1
1.595382294E1,4.574333429E-1,3.715317249E0,1.809382886E-1
1.597367606E1,4.687605202E-1,3.507308960E0,2.269451618E-1
1.599352762E1,4.495269954E-1,3.227724552E0,2.359161526E-1
1.601338700E1,4.020365775E-1,2.920808554E0,2.122844011E-1
1.603323387E1,3.212103844E-1,2.635464668E0,1.680752039E-1
1.605308544E1,9.407324344E-2,2.533537388E0,9.070476145E-2
1.607293856E1,-3.440044075E-2,2.284548759E0,3.892084118E-3
1.609279794E1,-3.237585723E-2,1.929932714E0,-4.417428374E-2
1.611264481E1,-3.736750036E-2,1.665986538E0,-6.628760695E-2
1.613249637E1,-5.536184460E-2,1.378635526E0,-1.213003844E-1
1.615234950E1,-6.499606371E-2,1.201868653E0,-1.717054844E-1
1.617220262E1,-5.307546258E-2,1.288035512E0,-1.775174439E-1
1.619205418E1,-1.895602047E-1,2.380716324E0,-1.249306649E-1
1.621190731E1,-2.050412744E-1,3.281079292E0,-8.299040794E-2
1.623176044E1,-1.668360233E-1,3.848974705E0,-6.544984877E-2
1.625161356E1,-1.652826816E-1,5.248379707E0,-3.909537569E-3
1.627146512E1,-1.450892240E-1,7.200356007E0,7.942993194E-2
1.629131825E1,-7.574728876E-2,8.562026978E0,1.086641997E-1
1.631117137E1,-1.670280099E-2,9.988013268E0,1.516516656E-1
1.633102294E1,7.642796636E-2,1.040788746E1,9.484118968E-2
1.635087606E1,2.481334656E-1,9.668845177E0,-6.038839370E-2
1.637072919E1,4.534365237E-1,1.378530860E0,-4.190186560E-1
1.639058231E1,4.663519859E-1,-4.326618671E0,-2.402096689E-1
1.641043387E1,5.053426027E-1,-3.408872366E0,-3.488913178E-2
1.643028700E1,4.966334403E-1,-2.162410498E0,1.039867178E-1
1.645014012E1,4.341157377E-1,-1.242238045E0,7.656759769E-2
1.646999168E1,4.021413028E-1,-2.179095984E0,1.107585952E-1
1.648984481E1,3.532720804E-1,-2.756328583E0,1.458048075E-1
1.650970418E1,2.945068479E-1,-2.878362179E0,1.530130208E-1
1.652954950E1,2.312386781E-1,-2.928575277E0,1.514422148E-1
1.654940262E1,1.588424146E-1,-3.363528728E0,1.549677849E-1
1.656925575E1,2.453932911E-2,-5.310688019E0,1.964018941E-1
1.658910887E1,-2.422516979E-2,-6.867364407E0,2.788861692E-1
1.660896044E1,2.843141370E-2,-5.785748959E0,2.465975732E-1
1.662881356E1,1.862266287E-2,-5.026408672E0,2.084795833E-1
1.664866669E1,-9.194394201E-2,-4.818382740E0,1.636071652E-1
1.666851825E1,-5.886821151E-1,-8.894232750E0,2.323731333E-1
1.668837137E1,-3.842865825E-1,7.407003045E-1,-5.178391933E-2
1.670822450E1,-4.108679593E-1,3.180513382E-1,-4.607669078E-3
1.672807606E1,2.515892088E-1,1.213209820E1,2.520080805E-1
1.674792918E1,3.562566042E-1,1.285663605E1,3.769562244E-1
1.676778231E1,-9.831613898E-1,-1.510193253E1,-4.937536418E-1
1.678763387E1,-6.405881643E-1,-3.158312798E0,-1.037772745E-1
1.680748700E1,-4.777315259E-1,-2.436182976E0,-2.385865152E-2
1.682734012E1,-1.696285456E-1,-2.076138973E0,8.977973461E-2
1.684719325E1,-2.057743259E-2,-1.590658188E0,1.850223541E-1
1.686704481E1,6.077236310E-2,-1.305192113E0,2.356369048E-1
1.688689794E1,1.874658167E-1,-1.079381466E0,2.981894910E-1
1.690675106E1,2.504023910E-1,-9.743126035E-1,3.142290711E-1
1.692660887E1,2.667735815E-1,-8.700990081E-1,3.122743070E-1
1.694645575E1,2.536312342E-1,-6.782349348E-1,3.281219006E-1
1.696630887E1,1.949532777E-1,-2.564586699E-1,3.955963254E-1
1.698616044E1,6.942919642E-2,-2.915921509E-1,3.106336892E-1
1.700601825E1,-5.965535343E-2,-5.350830555E-1,1.810953617E-1
1.702586668E1,-1.823345423E-1,-8.984256983E-1,4.021238536E-2
1.704571825E1,-1.823869050E-1,-9.970716834E-1,6.352998316E-3
1.706557762E1,-1.655793786E-1,-9.812939167E-1,-3.490658419E-4
1.708542294E1,-1.605179310E-1,-1.090691209E0,-3.890338913E-2
1.710527606E1,-1.737649739E-1,-1.257544637E0,-9.569640458E-2
1.712512919E1,-1.934697479E-1,-1.380642653E0,-1.324879378E-1
1.714498231E1,-2.101027369E-1,-1.364114404E0,-1.290845573E-1
1.716483387E1,-2.732138336E-1,-1.331529140E0,-1.190663576E-1
1.718468700E1,-4.357039928E-1,-1.433700681E0,-1.216145381E-1
1.720453856E1,-5.925218463E-1,-1.910594463E0,-1.446179748E-1
1.722439325E1,-6.669775844E-1,-2.904472113E0,-1.824392676E-1
1.724424481E1,-7.812792063E-1,-5.205391884E0,-2.861118317E-1
1.726409794E1,-9.156695604E-1,-9.281311989E0,-5.628686547E-1
1.728394950E1,-6.923022866E-1,-7.802249908E0,-4.263490140E-1
1.730380262E1,-2.710670829E-1,-5.037596226E0,-2.972993851E-1
1.732365575E1,1.663298719E-2,-4.091610432E0,-3.694862127E-1
1.734350731E1,2.299820334E-1,-3.204633951E0,-3.677932322E-1
1.736336044E1,5.702165365E-1,-1.447907686E0,-3.009296656E-1
1.738321356E1,6.833836436E-1,-5.788035393E-1,-2.035228461E-1
1.740306669E1,5.750510693E-1,-9.420065284E-1,-1.436405927E-1
1.742291825E1,3.932226896E-1,-1.593537927E0,-4.787437990E-2
1.744277137E1,2.421469837E-1,-2.220477581E0,3.735004738E-2
1.746262450E1,1.458397061E-1,-2.635360003E0,8.691739291E-2
1.748247606E1,1.284038723E-1,-2.573365688E0,8.965755999E-2
1.750233544E1,1.085594818E-1,-2.426147223E0,8.480554819E-2
1.752218231E1,1.022239327E-1,-2.465678930E0,-4.579744115E-2
1.754203387E1,1.023286507E-1,-2.220530033E0,-1.003215238E-1
1.756188700E1,1.093274206E-1,-1.852771759E0,-1.106713265E-1
1.758174012E1,1.035678387E-1,-1.614935756E0,-1.039169058E-1
1.760159325E1,9.213592857E-2,-1.355509996E0,-9.337511659E-2
1.762145106E1,1.381428093E-1,-4.442910254E-1,-9.958848357E-2
1.764129794E1,1.609368026E-1,6.036919355E-1,-1.179318950E-1
1.766115106E1,1.546885371E-1,1.522258759E0,-1.382649839E-1
1.768100262E1,1.281246245E-1,2.066783905E0,-1.502204835E-1
1.770085575E1,7.342600077E-2,2.361308336E0,-1.229409948E-1
1.772070887E1,-2.768092230E-2,2.403841972E0,-6.614797562E-2
1.774056044E1,-1.717927605E-1,2.175151587E0,-3.141592722E-3
1.776041356E1,-3.589967787E-1,1.359873295E0,2.296853252E-2
1.778026668E1,-4.831245840E-1,2.103121728E-1,-7.293730974E-2
1.780011825E1,-4.198040366E-1,5.508782864E-1,-1.345474273E-1
1.781997137E1,-3.665715158E-1,9.254957438E-1,-1.602735817E-1
1.783982450E1,-3.541447520E-1,8.031306863E-1,-2.429323792E-1
1.785967762E1,-3.396236300E-1,1.184450269E0,-2.104168981E-1
1.787952919E1,-3.066368997E-1,1.723582387E0,-1.573239714E-1
1.789938231E1,-1.999798268E-1,2.421888590E0,-1.038819999E-1
1.791923544E1,-9.424777818E-4,3.065042496E0,-6.455972791E-2
1.793908700E1,1.111600175E-1,3.364209414E0,-5.515240598E-3
1.795894012E1,1.466949284E-1,3.531342030E0,8.897688240E-2
1.797879325E1,1.343379915E-1,3.293610811E0,9.878563881E-2
1.799865106E1,1.196946800E-1,3.041061640E0,1.050339118E-1
1.801849794E1,9.241518378E-2,2.700705051E0,8.693484962E-2
1.803835106E1,1.972221956E-2,2.319664717E0,5.354670063E-2
1.805820418E1,-1.272345036E-1,1.933440804E0,2.064724453E-2
1.807805575E1,-2.748893499E-1,1.665986538E0,1.352630183E-2
1.809790887E1,-3.252072036E-1,1.479585409E0,1.111774705E-2
1.811776044E1,-4.586725235E-1,1.256532311E0,9.023352526E-3
1.813761356E1,-6.954264641E-1,7.181331515E-1,-4.267330095E-2
1.815746669E1,-7.694982290E-1,-1.245990545E-1,-1.473057866E-1
1.817731981E1,-7.418347597E-1,-1.065401316E0,-2.531076372E-1
1.819717294E1,-7.312754989E-1,-2.695242167E0,-4.194898903E-1
1.821702450E1,-6.824935675E-1,-4.995812893E0,-6.306572556E-1
1.823687762E1,-4.265410006E-1,-9.802850723E0,-1.213230729E0
1.825672918E1,-3.258005977E-1,-1.029101944E1,-1.264840126E0
1.827658231E1,-3.303559124E-1,-8.757084846E0,-1.023967266E0
1.829643544E1,-3.286280334E-1,-6.780534267E0,-7.025125027E-1
1.831629325E1,-3.150842786E-1,-3.620371342E0,-2.085668445E-1
1.833614012E1,-2.414314002E-1,2.187421173E-1,3.171612322E-1
1.835599325E1,-1.333606094E-1,1.806729913E0,4.650080800E-1
1.837584481E1,-2.982767671E-2,2.627226591E0,5.118526816E-1
1.839569794E1,1.113694608E-1,3.688247204E0,6.014578938E-1
1.841555106E1,3.095515966E-1,5.089694023E0,7.766715288E-1
1.843540262E1,3.223274052E-1,5.656298161E0,9.102240801E-1
1.845526200E1,4.244117141E-1,5.959740639E0,9.838770032E-1
1.847510887E1,6.185446978E-1,6.169651508E0,1.060339928E0
1.849496668E1,4.612730742E-1,6.140225410E0,1.102419734E0
1.851481356E1,1.888620704E-1,5.922809601E0,1.073499680E0
1.853466668E1,3.450515866E-2,6.364290714E0,1.118982911E0
1.855451981E1,1.346172392E-1,7.835446358E0,1.310812116E0
1.857437137E1,3.373721614E-2,6.704996586E0,1.135266900E0
1.859422450E1,-1.275032878E0,-1.304520130E1,-1.985486507E0
1.861407762E1,-5.154655576E-1,4.148647562E-2,2.230530828E-1
1.863392918E1,-2.976309955E-1,1.507597923E0,4.505392909E-1
1.865378231E1,-2.576629519E-1,1.432077527E0,4.222300649E-1
1.867363544E1,-1.850223541E-1,1.803762913E0,4.825835228E-1
1.869348856E1,-1.181064323E-1,2.036188364E0,5.261644125E-1
1.871334012E1,-9.311331809E-2,1.723233342E0,4.652000666E-1
1.873319325E1,5.009094719E-3,7.134556770E-1,2.653598487E-1
1.875304637E1,1.356469840E-1,1.587726027E-1,1.404990107E-1
1.877289794E1,1.777268797E-1,1.642005742E-1,1.371654272E-1
1.879275106E1,2.251649201E-1,2.448522449E-1,1.537809670E-1
1.881260418E1,2.649933398E-1,3.704810441E-1,1.817411333E-1
1.883245575E1,3.277030289E-1,6.725975275E-1,2.694090307E-1
1.885230887E1,4.144982398E-1,6.110572219E-1,2.658136487E-1
1.887216200E1,3.874281943E-1,1.566258520E-1,1.315629184E-1
1.889201512E1,3.251548409E-1,5.044001620E-3,7.766715437E-2
1.891186668E1,2.575582266E-1,-1.923701912E-1,1.218239777E-2
1.893171981E1,1.935046464E-1,-4.169766009E-1,-5.396557972E-2
1.895157294E1,1.434137076E-1,-6.331007481E-1,-1.102175415E-1
1.897142450E1,9.950122237E-2,-8.937132955E-1,-1.613556892E-1
1.899128387E1,6.347762793E-2,-1.136488557E0,-1.884431988E-1
1.901113544E1,1.916371472E-2,-1.449478507E0,-2.098409384E-1
1.903098231E1,-9.642943740E-2,-2.171486378E0,-2.725331485E-1
1.905083544E1,-2.671051919E-1,-3.572165251E0,-3.933448493E-1
1.907068856E1,-4.124736488E-1,-5.226685047E0,-5.357637405E-1
1.909054168E1,-5.725377798E-1,-7.023885727E0,-6.977302432E-1
1.911039325E1,-5.332853794E-1,-7.424857616E0,-7.854505181E-1
1.913024637E1,-2.071880400E-1,-5.934171677E0,-6.906616688E-1
1.915009950E1,7.534586638E-2,-4.692300320E0,-6.308841705E-1
1.916995106E1,2.661976218E-1,-3.881140947E0,-6.174102426E-1
1.918980418E1,4.200483859E-1,-3.102008581E0,-5.720491409E-1
1.920965731E1,3.937811852E-1,-2.970061779E0,-4.988325536E-1
1.922950887E1,4.894426763E-1,-2.163230896E0,-3.751759827E-1
1.924936200E1,4.332954288E-1,-2.170543909E0,-3.342829049E-1
1.926921512E1,3.657512069E-1,-2.258421183E0,-2.973517478E-1
1.928906668E1,3.102846444E-1,-2.254476786E0,-2.650980651E-1
1.930891981E1,2.756049335E-1,-2.109928608E0,-2.362652272E-1
1.932877294E1,2.422691584E-1,-1.918221593E0,-2.125810981E-1
1.934862606E1,2.085144818E-1,-1.738836646E0,-1.923876405E-1
1.936847762E1,1.807986498E-1,-1.563640475E0,-1.763306111E-1
1.938833075E1,1.690525860E-1,-1.363381386E0,-1.631882787E-1
1.940818387E1,1.728923172E-1,-1.038523316E0,-1.563116908E-1
1.942803544E1,1.711295396E-1,-6.084218025E-1,-1.576206833E-1
1.944788856E1,1.508662552E-1,-1.765575111E-1,-1.618443877E-1
1.946774168E1,1.816364080E-1,5.363745689E-1,-1.610589772E-1
1.948759950E1,1.855634004E-1,1.038278937E0,-1.639387757E-1
1.950744637E1,1.853190660E-1,1.433927655E0,-1.738347858E-1
1.952729794E1,1.537984163E-1,1.667801738E0,-1.546536237E-1
1.954715262E1,8.370599151E-2,1.799050450E0,-9.648180008E-2
1.956700419E1,-2.804744057E-2,1.715396881E0,-3.270747140E-2
1.958685731E1,-1.724908948E-1,1.371008515E0,7.819075137E-3
1.960670887E1,-4.376413226E-1,7.382743061E-2,-1.923352852E-2
1.962656200E1,-5.044001341E-1,-5.170363188E-1,-1.746900082E-1
1.964641512E1,-4.327369332E-1,-7.984881103E-2,-2.434559762E-1
1.966626668E1,-4.356167316E-1,-1.163960099E-1,-3.265511096E-1
1.968612137E1,-4.060682952E-1,1.622283608E-1,-3.471285403E-1
1.970597762E1,-4.116882682E-1,6.138846278E-1,-2.470164448E-1
1.972582450E1,-3.734306395E-1,1.280827284E0,-1.743060350E-1
1.974567762E1,-1.639736891E-1,2.782613277E0,-4.303981736E-2
1.976553075E1,-9.822712839E-2,3.310488224E0,2.661627159E-2
1.978538231E1,-1.609193534E-2,4.029598713E0,1.749343574E-1
1.980523544E1,6.440264732E-2,4.639940262E0,3.333055377E-1
1.982508856E1,7.677703351E-2,4.593130589E0,3.708650172E-1
1.984494012E1,9.182177484E-2,4.394250393E0,3.779335916E-1
1.986479325E1,8.843583614E-2,4.033263683E0,3.522248864E-1
1.988464637E1,6.038839370E-2,3.575080156E0,3.036174774E-1
1.990449950E1,-7.190756500E-2,3.074728966E0,2.536661625E-1
1.992435106E1,-2.616248429E-1,2.210651398E0,1.296256036E-1
1.994420418E1,-3.950727284E-1,1.231469393E0,-1.179842558E-2
1.996405731E1,-4.022111297E-1,8.791049123E-1,-4.262094200E-2
1.998391512E1,-3.914249837E-1,5.290965438E-1,-7.215191424E-2
2.000376200E1,-3.636044562E-1,1.437627673E-1,-1.025206372E-1
2.002361512E1,-3.309318721E-1,-1.632580906E-1,-1.066396162E-1
2.004346669E1,-2.958682179E-1,-4.149171114E-1,-9.702285379E-2
2.006331981E1,-2.618168294E-1,-8.204967380E-1,-9.957103431E-2
2.008317294E1,-2.268579006E-1,-1.444888234E0,-1.200786531E-1
2.010302606E1,-1.840275228E-1,-2.355461359E0,-1.614604145E-1
2.012287762E1,-1.279850006E-1,-3.629063129E0,-2.228610963E-1
2.014273075E1,-1.403244734E-1,-8.390652657E0,-6.636963487E-1
2.016258387E1,-9.157742560E-2,-8.636936188E0,-7.413460612E-1
2.018243544E1,-3.089232743E-2,-8.000658989E0,-6.673091650E-1
2.020228856E1,1.936093718E-1,-5.417728901E0,-4.586899877E-1
2.022214168E1,2.937563658E-1,-4.519233227E0,-4.174478352E-1
2.024199481E1,3.308795094E-1,-4.246159077E0,-3.421543539E-1
2.026184637E1,3.813893497E-1,-3.792460918E0,-1.532224566E-1
2.028169950E1,3.720343709E-1,-4.194794178E0,1.036201939E-1
2.030155262E1,5.359905958E-1,-1.303254843E0,3.418052793E-1
2.032140419E1,5.074544549E-1,-1.574566245E0,3.999421895E-1
2.034125731E1,4.911880195E-1,-1.424258471E0,3.487865925E-1
2.036111044E1,4.165228307E-1,-2.048702478E0,3.352253735E-1
2.038096200E1,3.478615582E-1,-2.288563013E0,2.773502767E-1
2.040082137E1,2.523746192E-1,-2.552351952E0,1.866106093E-1
2.042066825E1,1.859473735E-1,-2.495855808E0,9.711012244E-2
2.044051981E1,1.653175801E-1,-2.199760675E0,4.248131439E-2
2.046037294E1,1.425759494E-1,-1.914521456E0,-1.560324337E-2
2.048022606E1,1.197819486E-1,-1.673125029E0,-4.913101718E-2
2.050007918E1,9.370672703E-2,-1.516952872E0,-5.949827284E-2
2.051993075E1,6.405358016E-2,-1.549852371E0,-5.293583497E-2
2.053978387E1,6.771877408E-2,-1.514928341E0,-2.480112948E-2
2.055963700E1,1.744107455E-1,-1.004890800E0,1.311789453E-1
2.057948856E1,2.893057764E-1,1.420715451E0,1.480911821E-1
2.059934169E1,3.642327487E-1,8.339706421E0,-3.460289836E-1
2.061919481E1,3.734306395E-1,9.696368217E0,-4.792848527E-1
2.063904794E1,4.055446982E-1,1.349012089E1,-5.628686547E-1
2.065889950E1,-5.550670624E-1,-1.528421497E1,4.989372790E-1
2.067875262E1,-5.171759725E-1,-1.272943687E1,2.935992777E-1
2.069860575E1,-5.482079387E-1,-9.406521797E0,9.393361956E-2
2.071845731E1,-6.056118011E-1,-7.066471577E0,-5.682792142E-2
2.073831044E1,-4.708374739E-1,-9.043196678E0,-8.450884372E-2
2.075816200E1,-3.979001641E-1,-1.134708309E1,-1.824218184E-1
2.077801512E1,-2.941054404E-1,-1.518961811E1,-4.082325101E-2
2.079786825E1,-2.594257295E-1,-1.456496429E1,1.274439394E-1
2.081772137E1,-2.557605505E-1,-1.305281162E1,1.412320435E-1
2.083757294E1,-3.019419611E-1,-1.137816811E1,1.957735866E-1
2.085742606E1,-4.126132727E-1,-9.553792953E0,4.041833580E-1
2.087727762E1,-3.978303373E-1,-8.534153938E0,4.622330070E-1
2.089713231E1,-3.567104042E-1,-7.732314587E0,4.321784377E-1
2.091698387E1,-3.149446547E-1,-7.014129162E0,3.943920434E-1
2.093683544E1,-2.779960334E-1,-6.326050758E0,3.540749550E-1
2.095668856E1,-2.318146378E-1,-5.815052986E0,2.576455176E-1
2.097654794E1,-1.987580955E-1,-5.381251335E0,1.389107555E-1
2.099639481E1,-2.291268259E-1,-4.873901844E0,-3.890338913E-2
2.101624637E1,-2.450093180E-1,-4.485443592E0,-1.582140923E-1
2.103609950E1,-2.174331248E-1,-4.246438503E0,-2.083224952E-1
2.105595262E1,-1.927367151E-1,-3.847997189E0,-2.392671853E-1
2.107580419E1,-1.642529368E-1,-3.269682407E0,-2.454107404E-1
2.109566356E1,-1.286482215E-1,-2.612879992E0,-2.458645254E-1
2.111551044E1,-9.175195545E-2,-1.868549466E0,-2.426182181E-1
2.113536200E1,-5.604252219E-2,-1.061509252E0,-2.318495363E-1
2.115521512E1,-1.979203336E-2,-2.475575060E-1,-2.168397009E-1
2.117506825E1,2.167698927E-2,7.868816853E-1,-2.070833147E-1
2.119491981E1,7.990117371E-2,2.781182051E0,-1.974491030E-1
2.121477450E1,1.578650326E-1,5.703927994E0,-1.626472324E-1
2.123462762E1,1.914626211E-1,7.504950523E0,-1.062905490E-1
2.125447918E1,2.097536623E-1,7.691788197E0,-8.173377067E-2
2.127433231E1,2.564412355E-1,7.684126377E0,-1.326275766E-1
2.129418544E1,3.665889502E-1,8.557488441E0,-3.273888528E-1
2.131403700E1,3.802374303E-1,8.094645500E0,-3.560122550E-1
2.133388856E1,4.070282280E-1,7.211682796E0,-3.411595225E-1
2.135374325E1,5.764299035E-1,6.330047607E0,-3.468318284E-1
2.137360106E1,5.215567350E-1,5.983215332E0,-3.407755494E-1
2.139344794E1,4.574857056E-1,5.539343357E0,-3.175277412E-1
2.141329950E1,4.007973969E-1,5.253825188E0,-3.128153682E-1
2.143315419E1,3.478266597E-1,4.920222759E0,-3.036698401E-1
2.145300575E1,2.320589721E-1,4.402802467E0,-2.670004666E-1
2.147286356E1,1.316850930E-1,3.917740583E0,-2.316051871E-1
2.149271044E1,1.069712266E-1,3.699225426E0,-2.319193482E-1
2.151256356E1,8.553858846E-2,3.499070883E0,-2.367713600E-1
2.153241512E1,7.079055160E-2,3.238790035E0,-2.278003693E-1
2.155226825E1,5.199335888E-2,2.924648285E0,-2.049540132E-1
2.157212137E1,3.380702808E-2,2.702624798E0,-1.801528782E-1
2.159197450E1,1.745329238E-2,2.634382486E0,-1.626297832E-1
2.161182606E1,9.651671164E-3,2.798251390E0,-1.584060788E-1
2.163167919E1,1.072504818E-1,3.427721977E0,-1.381602585E-1
2.165153231E1,2.524444163E-1,5.833780289E0,-2.759016454E-1
2.167138387E1,2.619215548E-1,7.782091618E0,-4.377983809E-1
2.169123700E1,1.758244634E-1,7.442101479E0,-3.859970272E-1
2.171109012E1,-2.785894573E-1,1.230928302E0,1.278104633E-1
2.173094168E1,-5.515938401E-1,-7.452381253E-1,1.735380888E-1
2.175079481E1,-8.537452817E-1,-1.763707519E0,9.838420898E-2
2.177064794E1,-7.640353441E-1,-4.609938264E-1,1.054178830E-2
2.179050575E1,-5.235638618E-1,1.360012889E0,5.565854907E-2
2.181035262E1,-3.771831095E-1,3.087173223E0,1.085245758E-1
2.183020575E1,-2.360034138E-1,5.119137764E0,1.623156220E-1
2.185005887E1,3.380702808E-2,7.991112232E0,1.491209269E-1
2.186991044E1,1.837482601E-1,8.670673370E0,1.139001846E-1
2.188976356E1,2.226865590E-1,8.310210228E0,7.787659019E-2
2.190961668E1,3.351381123E-1,8.294380188E0,8.211774379E-2
2.192946825E1,4.062079191E-1,7.951353550E0,7.845254987E-2
2.194932137E1,4.656887352E-1,7.476309776E0,6.916739792E-2
2.196917918E1,4.674864411E-1,6.878674030E0,7.222172618E-2
2.198902606E1,3.950203657E-1,6.180350304E0,8.035495877E-2
2.200887918E1,1.552644968E-1,5.370831966E0,1.273741275E-1
2.202873231E1,-3.691371530E-2,4.464691639E0,1.186125726E-1
2.204858544E1,-8.923868090E-2,3.856182814E0,9.953612834E-2
2.206843856E1,-9.292133152E-2,3.424772263E0,9.091419727E-2
2.208829012E1,-8.611454815E-2,2.991476774E0,7.468263805E-2
2.210814325E1,-8.861036599E-2,2.419741869E0,2.862340026E-2
2.212799481E1,-1.036027446E-1,1.785262346E0,-3.204424679E-2
2.214784794E1,-1.127831787E-1,1.262675881E0,-6.653194875E-2
2.216770106E1,-1.145983189E-1,8.550542593E-1,-7.187265903E-2
2.218755262E1,-1.868898571E-1,2.284286916E-1,-6.386159360E-2
2.220740575E1,-6.495940685E-1,-4.001446724E0,-2.370157093E-1
2.222725887E1,-8.098327518E-1,-8.726855278E0,-6.022258401E-1
2.224711044E1,-7.437022328E-1,-8.974395752E0,-6.429443955E-1
2.226696356E1,-6.876248121E-1,-8.657199860E0,-6.825459003E-1
2.228681512E1,-6.263288260E-1,-7.722104549E0,-7.994829416E-1
2.230666825E1,-4.495269954E-1,-6.311843395E0,-7.423408628E-1
2.232652137E1,-1.516342014E-1,-4.574996471E0,-5.002113581E-1
2.234637450E1,1.605353802E-1,-2.540710688E0,-2.739817798E-1
2.236622606E1,4.346567988E-1,-4.517959356E-1,-1.498714238E-1
2.238607918E1,7.484495640E-1,2.158588409E0,-1.351233870E-1
2.240593231E1,7.819424272E-1,2.843856812E0,-1.912880875E-2
2.242578387E1,6.339035630E-1,1.634553194E0,7.159340382E-2
2.244563856E1,5.018694401E-1,4.367337227E-1,1.448972374E-1
2.246549637E1,3.930132389E-1,-4.691095948E-1,2.056695968E-1
2.248534325E1,2.707180083E-1,-1.433177114E0,2.495471686E-1
2.250519637E1,2.306103557E-1,-1.419563532E0,2.253045589E-1
2.252504794E1,1.748819947E-1,-1.494420767E0,1.953023374E-1
2.254490106E1,9.988519549E-2,-1.702917695E0,7.007496804E-2
2.256475262E1,1.150870100E-1,-1.300898552E0,5.993460491E-2
2.258460575E1,1.365371048E-1,-7.793418765E-1,5.356415361E-2
2.260445887E1,1.408480704E-1,-1.341634542E-1,2.439970337E-2
2.262431044E1,1.643227488E-1,8.686678410E-1,-1.853539608E-2
2.264416356E1,3.011041880E-1,2.855323792E0,-1.027126238E-1
2.266401668E1,3.906046748E-1,4.031850338E0,-1.644449234E-1
2.268386825E1,3.892084360E-1,4.223051071E0,-1.795420200E-1
2.270372137E1,2.861816287E-1,4.900517941E0,1.570796408E-2
2.272357450E1,1.639736891E-1,5.503633976E0,1.655968428E-1
2.274342762E1,2.227563709E-1,6.405986786E0,1.820203811E-1
2.276328544E1,2.425484061E-1,6.044232368E0,1.749518067E-1
2.278313231E1,2.250951082E-1,5.497106552E0,1.777268797E-1
2.280298544E1,1.749867052E-1,4.856378555E0,1.807986498E-1
2.282283700E1,1.195201501E-1,3.976680279E0,1.616698503E-1
2.284269012E1,1.680053920E-1,2.896391392E0,7.171557844E-2
2.286254325E1,1.873087287E-1,2.341219664E0,2.279400080E-2
2.288239637E1,1.702917814E-1,2.089595556E0,1.672025397E-2
2.290224794E1,1.893507689E-1,1.769222856E0,-1.521927118E-2
2.292210106E1,2.494250089E-1,1.637310863E0,-2.766346931E-2
2.294195262E1,2.864958048E-1,1.698920965E0,3.385938704E-3
2.296181200E1,3.631331921E-1,2.294374943E0,1.409876943E-1
2.298165887E1,4.117057025E-1,3.030170918E0,3.006853163E-1
2.300151200E1,3.714758754E-1,3.175155401E0,3.401122987E-1
2.302136512E1,3.152937293E-1,3.199712038E0,3.471110761E-1
2.304121669E1,2.840174139E-1,3.031968594E0,3.265511096E-1
2.306106981E1,2.580469251E-1,2.808077574E0,2.968805134E-1
2.308092137E1,2.227738202E-1,2.582144737E0,2.615201473E-1
2.310077450E1,1.025904566E-1,1.958137274E0,1.364498436E-1
2.312062762E1,-2.363175713E-2,1.090621352E0,-1.537635084E-2
2.314048075E1,-1.011941880E-1,4.771555662E-1,-1.089609042E-1
2.316033231E1,-1.523148865E-1,5.181882530E-2,-1.728225052E-1
2.318018544E1,-1.728748679E-1,-1.910611987E-1,-2.025803626E-1
2.320003856E1,-1.992991418E-1,-3.176150024E-1,-2.153387219E-1
2.321989168E1,-2.391973734E-1,-3.817209601E-1,-2.201034725E-1
2.323974325E1,-2.818183005E-1,-4.329114556E-1,-2.214648277E-1
2.325959637E1,-3.430444598E-1,-6.138497591E-1,-2.325127572E-1
2.327944794E1,-3.840247989E-1,-8.089950085E-1,-2.367015481E-1
2.329930106E1,-4.287226796E-1,-1.084268332E0,-2.413964868E-1
2.331915419E1,-4.902280867E-1,-1.758471608E0,-2.610663474E-1
2.333900731E1,-4.642052054E-1,-2.895152092E0,-3.171961308E-1
2.335885887E1,-1.603783071E-1,-2.807763577E0,-3.678455949E-1
2.337871200E1,-6.908012927E-2,-2.643178940E0,-3.571641743E-1
2.339856512E1,-7.579965144E-2,-2.650474548E0,-3.299719393E-1
2.341841668E1,-8.037241548E-2,-2.656932116E0,-3.035302162E-1
2.343826981E1,-7.759733498E-2,-2.584623098E0,-2.723935246E-1
2.345812762E1,-7.312929630E-2,-2.440301895E0,-2.326872945E-1
2.347797606E1,-7.098253816E-2,-2.187141895E0,-1.849176288E-1
2.349782606E1,-8.442157507E-2,-2.197125196E0,-1.480737329E-1
2.351767919E1,-1.001644433E-1,-2.319368124E0,-1.233075112E-1
2.353753387E1,-1.219112501E-1,-2.431365728E0,-8.820894361E-2
2.355738544E1,-1.522974372E-1,-2.708698511E0,-5.661848187E-2
2.357723856E1,-1.598547101E-1,-2.897176743E0,-4.639085010E-2
2.359709012E1,-1.716007739E-1,-3.155904293E0,-4.677482322E-2
2.361694325E1,-1.947962046E-1,-3.441195965E0,-4.553563893E-2
2.363679637E1,-2.361081392E-1,-3.903324127E0,-4.262094200E-2
2.365664950E1,-2.446951568E-1,-4.011604309E0,-7.099999487E-2
2.367650106E1,-2.102947235E-1,-3.631873131E0,-1.330988109E-1
2.369635262E1,-1.741838604E-1,-3.239592791E0,-1.801703423E-1
2.371620731E1,-1.593834609E-1,-2.798216581E0,-1.645670980E-1
2.373606044E1,-1.593136489E-1,-2.214648247E0,-1.148775741E-1
2.375591200E1,-1.584933549E-1,-1.542591810E0,-7.316420227E-2
2.377576512E1,-1.510407925E-1,-8.755618930E-1,-5.279621109E-2
2.379561669E1,-1.481959075E-1,-3.477219343E-1,-9.197885171E-3
2.381546981E1,-1.560673416E-1,8.323474973E-2,5.928883329E-2
2.383532137E1,-1.342158169E-1,8.278096318E-1,1.393470913E-1
2.385517606E1,-3.799581900E-2,2.448295593E0,2.403143793E-1
2.387502919E1,9.347983450E-2,4.031972408E0,3.062529266E-1
2.389488075E1,1.659808159E-1,4.508430004E0,3.264114857E-1
2.391473231E1,1.885479242E-1,4.390724659E0,3.222226799E-1
2.393458700E1,2.031912357E-1,4.245635509E0,3.158871531E-1
2.395444325E1,2.092824280E-1,4.059915066E0,3.078935444E-1
2.397429012E1,1.696809083E-1,3.729157686E0,2.988527119E-1
2.399414325E1,-2.588323317E-2,3.871925592E0,3.795043826E-1
2.401399637E1,-1.463807672E-1,2.873457670E0,3.122743070E-1
2.403384794E1,-1.784773618E-1,2.259346247E0,2.547307909E-1
2.405370106E1,-1.718451232E-1,2.012818336E0,2.264041156E-1
2.407355419E1,-1.830850393E-1,1.634640455E0,1.842020452E-1
2.409340731E1,-2.231577933E-1,8.719141483E-1,8.433430642E-2
2.411325887E1,-2.534043491E-1,2.289872058E-2,-5.530948564E-2
2.413311200E1,-2.507165372E-1,-5.075941086E-1,-1.815142483E-1
2.415296512E1,-2.155132592E-1,-4.401720464E-1,-2.240130156E-1
2.417281668E1,-1.213178337E-1,4.319864511E-1,-1.464854777E-1
2.419266981E1,-1.094321441E-2,1.383906484E0,-5.724680051E-2
2.421252294E1,3.462733328E-2,1.936512589E0,-1.759291813E-2
2.423237450E1,6.171484292E-2,2.279120684E0,1.623156248E-3
2.425222762E1,8.248426020E-2,2.456690550E0,-2.792526735E-3
2.427208075E1,9.651670605E-2,2.578060627E0,-1.230457146E-2
2.429193387E1,9.314822406E-2,2.788442612E0,-1.019272301E-2
2.431178544E1,7.276277989E-2,2.821254969E0,-3.733259439E-2
2.433163856E1,3.909537569E-2,2.443059444E0,-1.388234943E-1
2.435149169E1,4.075343907E-2,1.299188137E0,-3.487167954E-1
2.437134325E1,1.651081443E-1,-1.855407119E0,-7.644193172E-1
2.439119637E1,3.321710527E-1,-4.072045326E0,-9.625839591E-1
2.441104950E1,5.131093264E-1,-5.875301838E0,-1.036079764E0
2.443090106E1,7.216063738E-1,-6.651729107E0,-1.052084446E0
2.445076044E1,9.300859571E-1,-6.094515324E0,-1.096607804E0
2.447060731E1,1.081894636E0,-5.741871357E0,-1.125946760E0
2.449046044E1,1.219566226E0,-5.162526608E0,-1.196597695E0
2.451031200E1,1.337725043E0,-4.491308212E0,-1.293969631E0
2.453016512E1,1.422286272E0,-3.776822567E0,-1.378583193E0
2.455001825E1,1.484821439E0,-3.059963703E0,-1.452148795E0
2.456986981E1,1.522520542E0,-2.389355659E0,-1.525138497E0
2.458972294E1,1.526866436E0,-1.745311737E0,-1.576398849E0
2.460957606E1,1.487613916E0,-8.141611814E-1,-1.675359011E0
2.462942762E1,1.441362739E0,-1.218763441E-1,-1.770863414E0
2.464928075E1,1.391446233E0,2.352005690E-1,-1.792749882E0
2.466913387E1,1.331895709E0,4.057192504E-1,-1.751647353E0
2.468898700E1,1.250790238E0,4.179888964E-1,-1.616349459E0
2.470883856E1,1.175060391E0,4.531223774E-1,-1.503042698E0
2.472869168E1,1.142318010E0,4.298920333E-1,-1.396228433E0
2.474854325E1,1.177346706E0,3.164456487E-1,-1.271227956E0
2.476839637E1,1.242220640E0,2.933025658E-1,-1.255415320E0
2.478824950E1,1.352019310E0,2.705434859E-1,-1.295051813E0
2.480810106E1,1.545489073E0,5.881759524E-2,-1.185113430E0
2.482795419E1,1.769397378E0,-1.853714138E-1,-1.002604365E0
2.484780731E1,1.832909822E0,-1.223126724E-1,-9.745743871E-1
2.486766044E1,2.011317492E0,-2.081828713E-1,-8.539546728E-1
2.488751200E1,2.237529516E0,-3.229906261E-1,-6.860714555E-1
2.490736512E1,2.479048252E0,-4.353025556E-1,-4.685510993E-1
2.492721825E1,2.723481655E0,-5.286951065E-1,-2.177821845E-1
2.494707606E1,3.007987738E0,-6.571862698E-1,1.357866228E-1
2.496692294E1,3.257726908E0,-7.220950723E-1,4.584805369E-1
2.498677450E1,3.391104937E0,-6.661398411E-1,6.482152939E-1
2.500662762E1,3.462628603E0,-5.528679490E-1,7.863929868E-1
2.502648075E1,3.526926517E0,-4.312359393E-1,9.350601435E-1
2.504633387E1,3.691929817E0,-3.738146126E-1,1.275696039E0
2.506618544E1,4.103094578E0,-4.582187533E-1,2.066818953E0
2.508603856E1,4.429802895E0,-4.593706429E-1,2.834362268E0
2.510589169E1,4.679157734E0,-3.702366948E-1,3.577506065E0
2.512574950E1,5.041627884E0,-2.745577395E-1,4.685842514E0
2.514559637E1,5.311944485E0,-1.798561811E-1,5.881864071E0
2.516544950E1,5.280580997E0,-2.059488557E-2,6.568721294E0
2.518530106E1,4.974694729E0,1.534318924E-1,6.549976349E0
2.520515418E1,4.575817108E0,3.266907334E-1,6.120974541E0
2.522500731E1,4.158648491E0,4.689001441E-1,5.363309383E0
2.524486044E1,3.737901926E0,5.346816182E-1,4.275829792E0
2.526471356E1,3.323473454E0,5.136852860E-1,2.884313583E0
2.528456512E1,2.844729662E0,3.525914252E-1,1.272135615E0
2.530441825E1,2.404767036E0,1.565734893E-1,8.613199741E-2
2.532426981E1,1.990565419E0,-8.143706620E-2,-9.161931276E-1
2.534412294E1,1.555437446E0,-4.258079827E-1,-1.995347619E0
2.536397606E1,1.264054656E0,-6.605373025E-1,-2.512593508E0
2.538382919E1,1.048820734E0,-8.283157945E-1,-2.791008472E0
2.540368700E1,8.847597837E-1,-9.521468878E-1,-2.931524754E0
2.542353387E1,7.655013800E-1,-1.020336986E0,-2.945609570E0
2.544338700E1,6.758089662E-1,-1.046429634E0,-2.883807421E0
2.546323856E1,6.030810475E-1,-1.037685513E0,-2.775038481E0
2.548309168E1,5.420469046E-1,-9.971414804E-1,-2.625428915E0
2.550294481E1,4.962320030E-1,-9.235933423E-1,-2.430789948E0
2.552279637E1,4.615872204E-1,-8.378976583E-1,-2.223462105E0
2.554264950E1,4.290717542E-1,-7.581012249E-1,-2.033989191E0
2.556250262E1,3.912155628E-1,-6.963863969E-1,-1.886316895E0
2.558235419E1,3.587175310E-1,-6.357187033E-1,-1.752275705E0
2.560220731E1,3.215245605E-1,-6.353521943E-1,-1.710509896E0
2.562206044E1,2.741388679E-1,-6.822841167E-1,-1.739883780E0
2.564191356E1,2.371204346E-1,-6.872757673E-1,-1.706914544E0
2.566176512E1,2.161066681E-1,-6.359281540E-1,-1.584217906E0
2.568161825E1,2.110975683E-1,-5.690646172E-1,-1.420314074E0
2.570147137E1,2.122145891E-1,-5.081700683E-1,-1.258871078E0
2.572132294E1,2.183232307E-1,-4.569970071E-1,-1.120291948E0
2.574117606E1,2.178869098E-1,-4.392470121E-1,-1.034770846E0
2.576102918E1,2.096838504E-1,-4.295778871E-1,-9.688671827E-1
2.578088075E1,2.048143893E-1,-4.003261626E-1,-8.855975270E-1
2.580073387E1,1.979028881E-1,-3.757693768E-1,-8.090299368E-1
2.582058700E1,1.940282583E-1,-3.562566042E-1,-7.333698869E-1
2.584044012E1,1.968207806E-1,-3.250850141E-1,-6.446548104E-1
2.586029168E1,1.954943240E-1,-2.940530777E-1,-5.631828308E-1
2.588014481E1,1.877276152E-1,-2.497042567E-1,-4.925144613E-1
2.589999794E1,1.763829738E-1,-1.884781122E-1,-4.133463204E-1
2.591984950E1,1.647067219E-1,-1.363974810E-1,-3.415609300E-1
