"Time (s)","Gyroscope x (rad/s)","Gyroscope y (rad/s)","Gyroscope z (rad/s)"
1.476488580E-1,-9.643751383E-2,1.547734290E-1,-1.504211407E-2
1.665460970E-1,-1.025459841E-1,1.987544298E-1,8.399150101E-4
1.854433890E-1,-8.849649876E-2,1.993652731E-1,2.344126441E-2
2.043406810E-1,-5.734328553E-2,1.395022422E-1,2.954973653E-2
2.232379200E-1,-2.802261710E-2,6.620056927E-2,3.260397166E-2
2.421352120E-1,-2.977880416E-3,3.199312463E-2,4.054498672E-2
2.610325040E-1,1.229330152E-2,5.642701685E-2,5.215108395E-2
2.799297430E-1,1.473669056E-2,8.574768156E-2,4.970769584E-2
2.988270350E-1,2.206685767E-2,9.491039068E-2,3.932329267E-2
3.177243270E-1,2.328855172E-2,8.025006205E-2,4.787515476E-2
3.366215660E-1,5.573981442E-3,8.147175610E-2,7.169819623E-2
3.555188580E-1,-2.619007602E-2,1.046839505E-1,9.857547283E-2
3.744161500E-1,-3.046600707E-2,1.223985180E-1,1.193442866E-1
3.933134410E-1,-2.008160390E-2,1.572168171E-1,1.352263093E-1
4.122106810E-1,-2.802261710E-2,2.128039151E-1,1.559951156E-1
4.311079720E-1,-2.008160390E-2,2.433462739E-1,1.761530787E-1
4.500052640E-1,6.795675959E-3,2.201340795E-1,1.694337577E-1
4.689025560E-1,1.901262067E-2,2.396811992E-1,1.242310628E-1
4.877998470E-1,1.168245357E-2,2.372378111E-1,7.963921130E-2
5.066970870E-1,2.634278871E-2,1.663795263E-1,3.565821052E-2
5.255943790E-1,6.543701142E-2,1.254527569E-1,-2.214321401E-3
5.444916700E-1,7.582141459E-2,1.883700192E-1,-1.137703005E-2
5.633889620E-1,4.711159319E-2,2.335727215E-1,-1.687465608E-2
5.822862540E-1,4.772244394E-2,1.175117418E-1,-4.130854458E-2
6.011834930E-1,7.887565345E-2,-5.108210072E-2,-9.506310523E-2
6.200807850E-1,8.742751181E-2,-1.323247850E-1,-1.298813969E-1
6.389780770E-1,8.620581776E-2,-9.078717232E-2,-1.500393599E-1
6.578753680E-1,6.238277629E-2,-9.323056042E-2,-1.781383306E-1
6.767726600E-1,4.352286924E-3,-5.413633958E-2,-1.769166440E-1
6.956699520E-1,-8.422056586E-2,9.429954737E-2,-1.494285166E-1
7.145672430E-1,-1.514137685E-1,2.415137291E-1,-1.323247850E-1
7.334644830E-1,-1.275907159E-1,1.333937645E-1,-1.237729266E-1
7.523617750E-1,-4.146125913E-2,1.916533336E-2,-8.712209016E-2
7.712590660E-1,8.628217503E-3,1.450762269E-3,-3.642176837E-2
7.901563580E-1,-5.421269219E-3,8.399150101E-4,1.366770733E-2
8.090536500E-1,-3.535278514E-2,4.359922186E-2,7.108735293E-2
8.279509410E-1,-2.863346599E-2,1.162900478E-1,1.138466597E-1
8.468482330E-1,8.017370477E-3,1.486649513E-1,1.223985180E-1
8.657455250E-1,2.084516361E-2,1.847049445E-1,1.181225851E-1
8.846428160E-1,1.473669056E-2,9.307785332E-2,6.925480813E-2
9.035401080E-1,8.681666851E-2,-1.970745921E-1,-1.198787708E-2
9.224374000E-1,2.566322088E-1,-4.707341790E-1,-6.207735091E-2
9.413346910E-1,3.702498078E-1,-6.399388313E-1,-4.314108938E-2
9.602319310E-1,3.861318231E-1,-6.069530845E-1,3.565821052E-2
9.791292220E-1,3.641413152E-1,-3.528406620E-1,7.108735293E-2
9.980265140E-1,3.048891425E-1,-8.101361990E-2,4.482091591E-2
1.016923806E0,1.760003716E-1,9.918632358E-2,1.550024934E-2
1.035821097E0,2.145601064E-2,1.572168171E-1,3.138227761E-2
1.054718389E0,-6.345175952E-2,1.486649513E-1,5.398362502E-2
1.073615681E0,-8.055548370E-2,6.558972597E-2,4.359922186E-2
1.092512972E0,-4.695888236E-2,-6.024480984E-2,2.099787444E-2
1.111410264E0,8.017370477E-3,-1.127776727E-1,3.894151188E-3
1.130307556E0,5.749600008E-2,-1.323247850E-1,-3.436015919E-3
1.149204847E0,8.315158635E-2,-1.256054640E-1,-1.870719716E-2
1.168102139E0,7.826480269E-2,-7.979192585E-2,-3.275668249E-2
1.186999431E0,1.107160654E-2,-2.786990628E-2,-3.825430945E-2
1.205896722E0,-9.399411827E-2,-3.825430945E-2,-2.176143415E-2
1.224794014E0,-1.282015741E-1,-1.078908965E-1,1.450762269E-3
1.243691306E0,-6.100837141E-2,-1.891335845E-1,1.183516532E-2
1.262588597E0,-1.404185146E-1,-1.298813969E-1,2.672456671E-3
1.281485889E0,-3.933092654E-1,1.061347127E-2,-9.926267667E-4
1.300383129E0,-3.157316744E-1,3.077143058E-2,-2.786990628E-2
1.319280420E0,-4.879142344E-2,-4.657710437E-3,-9.200886637E-2
1.338177712E0,2.260898352E-1,-1.030041203E-1,-1.268271655E-1
1.357075004E0,3.348206580E-1,-1.439308822E-1,-1.188861504E-1
1.375972295E0,2.187596709E-1,-6.879667193E-2,-1.005607322E-1
1.556723806E0,-7.627955079E-2,6.497887522E-2,-9.872818738E-2
1.575621046E0,-7.689040154E-2,7.475243509E-2,-7.918107510E-2
1.594518338E0,-4.268295318E-2,2.710634656E-2,-6.513158977E-2
1.613415577E0,-9.086352773E-3,-2.786990628E-2,-5.474718660E-2
1.632312869E0,-6.642963737E-3,-1.992889121E-2,-5.902311578E-2
1.651210109E0,-7.864658721E-3,2.283041552E-2,-5.474718660E-2
1.670107400E0,2.267770469E-2,2.649549954E-2,-5.230379477E-2
1.689004640E0,4.405735806E-2,5.726693198E-3,-5.474718660E-2
1.707901931E0,2.267770469E-2,8.780929260E-3,-4.924955964E-2
1.726799223E0,-1.885990985E-2,3.321481869E-2,-3.397838026E-2
1.745696463E0,-3.535278514E-2,1.733279042E-2,-2.115058713E-2
1.764593754E0,-2.191414498E-2,-4.436278343E-2,-2.115058713E-2
1.783490994E0,-2.435753495E-2,-1.213295385E-1,-2.542651631E-2
1.802388286E0,-7.383616269E-2,-1.818034202E-1,-2.359397523E-2
1.821285577E0,-1.202605516E-1,-2.099023908E-1,-9.544488043E-3
1.840182817E0,-1.129303873E-1,-1.915769726E-1,6.337540224E-3
1.859080109E0,-1.465269923E-1,-1.103342846E-1,3.382566571E-2
1.877977400E0,-4.140780866E-1,1.663795263E-1,6.253548712E-2
1.896874640E0,-2.277696729E-1,3.258106709E-1,1.366770733E-2
1.915771931E0,1.387386769E-1,1.419456303E-1,-1.341573298E-1
1.934669171E0,2.529671192E-1,-4.497363046E-2,-1.420983374E-1
2.108679336E0,-1.091507673E0,-3.546731770E-1,-5.116609335E-1
2.127576523E0,-1.026147008E0,-6.368846297E-1,-6.565080881E-1
2.146473711E0,-3.933092654E-1,-5.275429487E-1,-7.487460375E-1
2.165370950E0,2.340308577E-1,-2.544942498E-1,-8.128849864E-1
2.184268138E0,4.081223309E-1,-2.355579734E-1,-8.800781965E-1
2.203165325E0,3.122956678E-2,-4.731775522E-1,-8.874083757E-1
2.222062565E0,-6.535302401E-1,-7.859313488E-1,-8.489249945E-1
2.240959752E0,-1.116552472E0,-9.930085540E-1,-7.023216486E-1
2.259856992E0,-1.106778860E0,-1.035767913E0,-4.572955370E-1
2.278754179E0,-7.842515111E-1,-8.946621418E-1,-3.839938641E-1
2.297651419E0,-3.872008026E-1,-5.073850155E-1,-6.503996253E-1
2.316548606E0,3.061871976E-2,-1.023932695E-1,-1.115865231E0
2.335445846E0,1.204132661E-1,-2.966426909E-1,-1.212989926E0
2.354343034E0,-1.984490007E-1,-5.550310612E-1,-9.796462655E-1
2.373240273E0,-4.287384152E-1,-5.214344859E-1,-7.768449783E-1
2.392137461E0,-3.236726820E-1,-3.931565583E-1,-7.475243211E-1
2.411034700E0,-7.864658721E-3,-2.526617050E-1,-8.061656952E-1
2.429931888E0,6.360447407E-2,-2.105132341E-1,-8.715263009E-1
2.448829127E0,-2.338781506E-1,-3.100813329E-1,-8.073873520E-1
2.467726315E0,-5.289173722E-1,-6.106181741E-1,-6.656708121E-1
2.486623554E0,-6.962895393E-1,-1.080359697E0,-5.055524707E-1
2.505520742E0,-8.935931921E-1,-1.844606042E0,-2.954210043E-1
2.524417981E0,-6.211553216E-1,-3.139602184E0,-5.596888065E-2
2.543315169E0,1.882173121E-1,-4.940456390E0,3.594072461E-1
2.562212409E0,6.274928451E-1,-6.694274902E0,9.745304585E-1
2.581109648E0,-2.241045833E-1,-6.850041389E0,1.642797351E0
2.600006836E0,-2.065198183E0,-4.766975880E0,2.088181257E0
2.618904075E0,-3.236879587E0,-2.152472973E0,2.030685425E0
2.637801263E0,-2.842272282E0,-1.384638071E0,1.807115316E0
2.656698502E0,-1.506883860E0,-2.782867432E0,1.796730876E0
2.675595742E0,-8.972582817E-1,-4.366260052E0,2.199966431E0
2.694492929E0,-1.811085820E0,-4.051673412E0,2.937258959E0
2.713390169E0,-2.512414694E0,-2.773093939E0,3.329422951E0
2.732287409E0,-1.636994243E0,-2.065732718E0,3.323314428E0
2.751184596E0,3.122956678E-2,-2.088334084E0,3.280555248E0
2.770081836E0,9.127585292E-1,-1.963110328E0,3.361797810E0
2.788979075E0,4.734829962E-1,-8.238039017E-1,3.554214716E0
2.807876263E0,-6.956022978E-2,4.113292694E-1,3.336142302E0
2.826773502E0,8.192989230E-2,7.521820664E-1,2.917101145E0
2.845670690E0,7.447755337E-1,5.072323084E-1,2.632446289E0
2.864567929E0,1.433811188E0,-2.074590027E-1,2.286095858E0
2.883465169E0,1.687923670E0,-9.288696051E-1,2.096122265E0
2.902362356E0,1.562089205E0,-1.379751205E0,1.889579654E0
2.921259596E0,2.328855172E-2,-2.265479803E0,6.489488482E-1
2.940156627E0,-2.591825008E0,-1.369366884E0,4.192702770E-1
2.959054023E0,-2.139721632E0,1.220090985E0,5.701495409E-1
2.977951263E0,-2.027249336E-1,9.207758904E-1,-3.155789673E-1
2.996848502E0,8.962656260E-1,-1.029048562E0,-6.198572516E-1
3.015745690E0,1.463131905E0,-2.555632114E0,-4.572955370E-1
3.034642929E0,1.949977160E0,-3.764575243E0,-2.074590027E-1
3.053540169E0,2.058707952E0,-3.561086893E0,-2.233410329E-1
3.072437356E0,1.334243178E0,-2.101772785E0,-3.485647142E-1
3.091334596E0,7.716528177E-1,-9.349780679E-1,-1.259872504E-2
3.110231836E0,1.043479800E0,-1.282015681E0,6.287909150E-1
3.129129023E0,1.858350039E0,-2.947796106E0,6.287909150E-1
3.148026263E0,1.650051117E0,-3.160981894E0,3.416926861E-1
3.166923502E0,4.814240038E-1,-1.774969459E0,2.573957741E-1
3.185820690E0,-4.183540046E-1,-3.620033562E-1,1.183516532E-2
3.204717929E0,-9.852202535E-1,2.366269529E-1,-5.299863815E-1
3.223615169E0,-3.114557564E-1,-1.646996886E-1,-1.012632012E0
3.242512200E0,6.751389503E-1,-1.386470556E0,-9.680401683E-1
3.261409596E0,1.030652046E0,-2.117043972E0,-7.438592315E-1
3.280306836E0,1.223679781E0,-2.705900669E0,-2.905342281E-1
3.299204023E0,9.115368128E-1,-2.396201134E0,3.655157387E-1
3.318101263E0,6.390989423E-1,-1.832389116E0,5.634302497E-1
3.336998502E0,7.374453545E-1,-1.872704983E0,5.951942801E-1
3.355895690E0,6.904101372E-1,-2.048629045E0,6.813237667E-1
3.374792929E0,4.832565486E-1,-1.658908486E0,7.729508281E-1
3.393690169E0,5.218162537E-1,-6.869741082E-1,4.437041879E-1
3.412587356E0,6.055023521E-2,-2.367796749E-1,-1.504211407E-2
3.431484596E0,-1.266209960E0,-3.577579737E0,6.208499074E-1
3.450381836E0,-1.538647890E0,-4.415127754E0,1.763134241E0
3.469279023E0,-7.811209559E-2,-2.734610558E0,1.838879347E0
3.488176263E0,3.494809866E-1,-2.695516348E0,1.524903774E0
3.507073450E0,1.716022611E0,-3.642176837E-2,8.560260534E-1
3.525970690E0,2.305490255E0,-6.600968242E-1,2.012359858E0
3.544867929E0,2.437433243E0,-2.636874914E0,3.375847340E0
3.563765117E0,3.456402779E0,-3.140823841E0,2.862124920E0
3.582662356E0,2.904120684E0,-3.318580389E0,1.487642169E0
3.601559596E0,1.163205862E0,-1.316223145E0,1.283619165E0
3.620456784E0,-4.977641702E-1,1.303166270E0,2.358175755E0
3.639354023E0,-1.355317384E-1,3.851697445E0,3.063093662E0
3.658251263E0,1.285986185E0,3.966536760E0,3.072256327E0
3.677148450E0,1.880951405E0,1.562776327E0,1.862091541E0
3.696045690E0,3.328735828E0,2.510887623E0,-1.378224194E-1
3.714942929E0,4.179035187E0,3.371571541E0,-1.177560806E0
3.733840117E0,3.615833998E0,2.515774488E0,-4.108711481E-1
3.752737356E0,1.982962966E0,6.776586771E-1,3.991123140E-1
3.771634596E0,9.848384857E-1,4.565319717E-1,1.227421165E0
3.790531784E0,8.932114244E-1,1.460154057E0,1.095478177E0
3.809429023E0,8.101361990E-1,1.673416018E0,6.436803192E-2
3.828326211E0,9.909469485E-1,1.221312761E0,-2.037939131E-1
3.847223450E0,9.542961121E-1,9.916341901E-1,2.710634656E-2
3.866120690E0,9.836167693E-1,2.427354306E-1,1.462215632E-1
3.885017877E0,1.482068181E0,-4.475219846E-1,6.375718117E-2
3.903915117E0,1.601183414E0,-8.040276915E-2,-2.123457789E-1
3.922812356E0,1.119835734E0,8.780165911E-1,-6.595623493E-1
3.941709544E0,6.965186000E-1,1.185883641E0,-9.008470178E-1
3.960606784E0,4.808131456E-1,3.245889544E-1,-1.220320106E0
3.979504023E0,2.694599926E-1,-2.612135708E-1,-1.597823739E0
3.998401211E0,-7.946359515E-1,-6.081748009E-1,-1.769471765E0
4.017298450E0,-1.938141942E0,-1.384027123E0,-2.127428293E0
4.036195690E0,-2.115898609E0,-1.596602082E0,-2.514705420E0
4.055092877E0,-1.967462659E0,-1.242310643E0,-2.693683624E0
4.073990117E0,-1.995561600E0,-1.010723114E0,-2.490882397E0
4.092887304E0,-2.356037855E0,-1.391968250E0,-1.778023601E0
4.111784544E0,-2.924736738E0,-1.258192658E0,-8.562551737E-1
4.130681784E0,-3.011476994E0,-1.252694964E0,-1.207186878E-1
4.149578971E0,-2.881366491E0,-1.603321314E0,1.333937645E-1
4.168476211E0,-3.154415131E0,-1.845216870E0,4.665346071E-2
4.187373450E0,-3.253372431E0,-2.048018217E0,3.382566571E-2
4.206270638E0,-2.800123930E0,-2.603278399E0,1.443890184E-1
4.225167877E0,-2.161101341E0,-3.121887684E0,1.083490327E-1
4.244065117E0,-1.582628846E0,-3.712576866E0,-2.459423840E-1
4.262962304E0,-9.797226191E-1,-4.153074265E0,-8.745805621E-1
4.281859544E0,-3.340570927E-1,-3.965543985E0,-1.307671309E0
4.300756784E0,3.189386129E-1,-3.264825821E0,-1.259414315E0
4.319653971E0,1.136939406E0,-2.314958334E0,-8.464815617E-1
4.338551211E0,1.938371062E0,-1.320499063E0,-5.079958439E-1
4.357448398E0,2.382457018E0,-1.335464865E-1,-4.939463735E-1
4.376345638E0,2.618855000E0,1.038669467E0,-6.839962006E-1
4.395242877E0,2.697654247E0,1.708234310E0,-7.817317843E-1
4.414140065E0,1.635390878E0,1.316604853E0,-9.185615778E-1
4.433037304E0,5.010474920E-1,-2.557159364E-1,-7.185091078E-2
4.451934492E0,-3.224509954E-1,-2.002815485E0,8.676321507E-1
4.470831731E0,-1.839795589E0,-2.112157106E0,1.083872080E0
4.489728971E0,-3.236268759E0,-1.768250108E0,7.448518872E-1
4.508626159E0,-1.027979612E0,-1.600878000E0,6.135197282E-1
4.527523398E0,4.624877274E-1,1.928750277E0,7.570688128E-1
4.546420586E0,5.389199853E-1,4.226757526E0,1.458932281E0
4.565317825E0,-2.686964273E-1,5.821145535E0,2.346569777E0
4.584215065E0,-4.098021686E-1,6.443598747E0,3.290939569E0
4.603112252E0,9.323056340E-1,3.531002522E0,2.154763699E0
4.622009492E0,2.326259136E0,1.816965222E0,-1.338824511E0
4.640906731E0,2.375126839E0,1.818186879E0,-1.266133666E0
4.659803919E0,2.515010834E0,2.763778448E0,2.283041552E-2
4.678701159E0,3.057443142E0,3.734414816E0,1.181225851E-1
4.697598346E0,2.370239973E0,2.588465214E0,6.009209901E-2
4.716495586E0,9.891144037E-1,2.443694353E0,2.323510200E-1
4.735392825E0,-1.208714023E-1,2.784547329E0,-5.841226876E-2
4.754290013E0,-4.189648628E-1,3.275668383E0,-2.214321401E-3
4.773187252E0,-3.474193811E-2,3.446094751E0,1.902025640E-1
4.792084440E0,5.285356045E-1,2.706358671E0,2.555632293E-1
4.810981679E0,1.006218195E0,1.551781058E0,2.732777894E-1
4.829878867E0,1.386775970E0,7.992172837E-1,2.512872815E-1
4.848776106E0,1.877286315E0,5.695387125E-1,1.248419061E-1
4.867673138E0,1.754505992E0,3.032093048E-1,-1.152210608E-1
4.886570534E0,1.387386769E-1,-1.494285166E-1,-2.496074587E-1
4.905467773E0,-1.092118502E0,5.231143236E-1,-3.424562514E-1
4.924364961E0,-1.029812098E0,1.030117512E0,-2.508291602E-1
4.943262200E0,-6.498651505E-1,3.801760674E-1,-1.512610465E-1
4.962159388E0,-1.055467725E0,-1.606375575E0,-4.939463735E-1
4.981056627E0,-1.836130500E0,-3.459686279E0,-1.486649513E0
4.999953867E0,-2.415290117E0,-2.828680992E0,-2.312515020E0
5.018851054E0,-2.568612814E0,-1.682120681E0,-1.969829679E0
5.037748294E0,-2.637638569E0,-1.711441278E0,-9.955283403E-1
5.056645481E0,-2.908854723E0,-1.745037913E0,-4.835619628E-1
5.075542721E0,-3.012698650E0,-1.577665806E0,-4.224772453E-1
5.094439909E0,-2.593657494E0,-1.680898905E0,-5.849626064E-1
5.113337148E0,-2.068863392E0,-2.748659849E0,-6.607840061E-1
5.132234336E0,-1.625388145E0,-3.463351250E0,-5.110501051E-1
5.151131575E0,-1.075625658E0,-3.923395634E0,-5.757998824E-1
5.170028763E0,-4.837146699E-1,-4.336328506E0,-1.040120125E0
5.188926002E0,1.277434379E-1,-4.442615986E0,-2.010145664E0
5.207823242E0,6.769714952E-1,-4.481099129E0,-2.749881744E0
5.226720429E0,1.234675050E0,-4.507976532E0,-2.661308765E0
5.245617669E0,1.946312070E0,-4.219656467E0,-2.085279942E0
5.264514856E0,2.422772884E0,-3.497558594E0,-1.409682751E0
5.283412096E0,2.423994541E0,-2.168354988E0,-8.299887180E-1
5.302309284E0,2.259065866E0,-7.236249447E-1,-5.580853224E-1
5.321206523E0,1.954863906E0,3.569638729E-1,-3.033620119E-1
5.340103711E0,1.776496530E0,1.375246286E0,-1.304922402E-1
5.359000898E0,1.863847733E0,2.218291759E0,-1.860793531E-1
5.377898138E0,1.650051117E0,1.879882455E0,-2.428881377E-1
5.396795325E0,7.001836896E-1,1.443890184E-1,2.221956849E-2
5.415692565E0,1.711135954E-1,-6.949151158E-1,2.958791554E-1
5.434589752E0,-6.455891728E-1,-6.087856293E-1,1.450762269E-3
5.453486992E0,-1.202071071E0,7.558471560E-1,1.376696974E-1
5.472384179E0,-4.953207672E-1,3.080960810E-1,6.055787206E-1
5.491281419E0,6.042806506E-1,-9.933903813E-2,9.354362488E-1
5.510178606E0,1.475348830E0,5.292227864E-1,9.201650620E-1
5.529075846E0,1.428313613E0,1.671583533E0,1.436330914E0
5.547973034E0,8.052493930E-1,4.432078838E0,2.564031363E0
5.566870273E0,8.315158486E-1,5.663546562E0,3.520007372E0
5.585767461E0,1.381278396E0,4.771709919E0,3.204810143E0
5.604664700E0,1.805817246E0,7.448518872E-1,6.422295570E-1
5.623561888E0,1.694032192E0,-1.614316583E0,-1.391968250E0
5.642459127E0,1.570030212E0,-1.565296017E-2,-1.090820551E0
5.661356315E0,2.717812061E0,4.053277016E0,-3.589491248E-1
5.680253554E0,2.422772884E0,6.283556461E0,1.798181683E-1
5.699150742E0,7.282826304E-1,4.089927673E0,-3.882697821E-1
5.718047981E0,-1.654632539E-1,1.777260065E0,-7.114843726E-1
5.736945169E0,-1.702736691E-2,1.991667509E0,-3.100813329E-1
5.755842409E0,2.512109280E-2,2.048476219E0,1.590493619E-1
5.774739596E0,-2.070008665E-1,1.209706664E0,2.384594977E-1
5.793636836E0,-1.233147904E-1,3.129828572E-1,2.011978179E-1
5.812534023E0,5.847335458E-1,3.050418496E-1,1.804290116E-1
5.831431263E0,1.189472318E0,8.829033375E-1,1.657686681E-1
5.850328450E0,1.038593054E0,4.986804426E-1,-3.092414327E-2
5.869225638E0,2.657949030E-1,-1.687465608E-2,-2.703762650E-1
5.888122877E0,-2.974062562E-1,-4.041518271E-1,-5.599178672E-1
5.907020065E0,-5.002075434E-1,-1.059590936E0,-9.472714067E-1
5.925917304E0,-5.686224699E-1,-1.239867210E0,-1.502531528E0
5.944814492E0,-1.056689382E0,-1.277739763E0,-1.760919929E0
5.963711731E0,-1.894771814E0,-2.429186821E0,-1.664406061E0
5.982608919E0,-2.538681269E0,-2.757822752E0,-1.221541762E0
6.001506159E0,-2.724378824E0,-1.779245377E0,-9.924740791E-1
6.020403346E0,-2.603430986E0,-1.150072694E0,-9.930849075E-1
6.039300586E0,-2.384136915E0,-1.600267053E0,-8.122741580E-1
6.058197773E0,-2.406127453E0,-2.493325710E0,-6.546755433E-1
6.077095013E0,-2.516690731E0,-2.665584803E0,-5.635829568E-1
6.095992200E0,-2.510582209E0,-2.374821424E0,-5.434249640E-1
6.114889388E0,-2.131780624E0,-2.804247141E0,-5.586961508E-1
6.133786627E0,-1.216120481E0,-3.972874165E0,-6.381826997E-1
6.152683815E0,-2.839676142E-1,-4.892810345E0,-1.122584581E0
6.171581054E0,1.320193708E-1,-4.407186508E0,-1.883700252E0
6.190478242E0,4.911975563E-1,-3.122498512E0,-2.320456028E0
6.209375481E0,1.215127945E0,-1.801846743E0,-2.156749010E0
6.228272669E0,2.001899242E0,-1.105480790E0,-1.685174823E0
6.247169856E0,2.413610220E0,-4.236989319E-1,-1.290567517E0
6.266067096E0,2.734305143E0,7.283589840E-1,-9.912523627E-1
6.284964284E0,3.163730621E0,2.323968410E0,-5.904602408E-1
6.303861523E0,2.511345863E0,2.908549309E0,-4.395809472E-1
6.322758711E0,7.905890942E-1,7.460735440E-1,-5.104392171E-1
6.341655950E0,4.692070484E-1,-1.010112286E0,7.353074104E-2
6.360553138E0,5.523586273E-1,-1.129303813E0,1.724879891E-1
6.379450377E0,-5.795413256E-2,-5.904602408E-1,-3.265742064E-1
6.398347565E0,-1.109833121E0,-4.408026636E-1,-4.475219846E-1
6.417244752E0,-1.234445930E0,-1.781383306E-1,8.102125525E-1
6.436141992E0,-8.606074452E-1,-2.312820405E-1,1.563998103E0
6.455039179E0,-3.572692871E-1,8.438091278E-1,1.742976308E0
6.473936419E0,4.099548757E-1,1.986169815E0,1.922565341E0
6.492833606E0,6.928535104E-1,3.571318388E0,2.416206360E0
6.511730846E0,8.638907075E-1,5.113784313E0,2.995289564E0
6.530628034E0,1.323858738E0,5.855352879E0,3.119291544E0
6.549525221E0,1.690367103E0,4.476059437E0,1.962881327E0
6.568422461E0,1.685480356E0,2.341835648E-1,-7.896727920E-1
6.587319648E0,1.215738773E0,-6.784222126E-1,-1.813452840E0
6.606216888E0,1.121668339E0,1.280564904E0,-1.145796776E0
6.625114075E0,1.970745921E0,5.359955788E0,-2.740413547E-1
6.644011263E0,1.618287086E0,7.211510181E0,-4.741701856E-2
6.662908502E0,1.234675050E-1,4.616554737E0,-8.611419201E-1
6.681805690E0,-2.778591514E-1,2.069245100E0,-9.533798695E-1
6.700702929E0,2.224247605E-1,1.571328163E0,-1.060583517E-1
6.719600117E0,-3.901786730E-2,1.170612454E0,6.070294604E-2
6.738497304E0,-2.772482932E-1,1.017900586E0,-4.046862945E-3
6.757394544E0,1.908897655E-3,5.506024361E-1,4.115583375E-2
6.776291731E0,2.798444033E-1,3.343625069E-1,4.970769584E-2
6.795188971E0,3.836884201E-1,6.312342882E-1,-3.336753324E-2
6.814086159E0,-1.410293579E-1,7.924979329E-1,-2.887016833E-1
6.832983346E0,-3.187859058E-1,5.310553312E-1,-4.554629922E-1
6.851880586E0,1.039203927E-1,-3.642176837E-2,-4.756209552E-1
6.870777773E0,8.192989230E-2,-7.786011696E-1,-6.589514613E-1
6.889674961E0,-5.112028122E-1,-1.943563223E0,-1.252084136E0
6.908572200E0,-1.115941644E0,-1.831778169E0,-1.986322522E0
6.927469388E0,-1.752444386E0,-1.560562015E0,-1.989987612E0
6.946366575E0,-2.241198540E0,-1.837886691E0,-1.333326817E0
6.965263815E0,-2.709718466E0,-1.186112642E0,-6.528429985E-1
6.984161002E0,-2.775689840E0,-8.378533721E-1,-3.479538560E-1
7.003058190E0,-2.651077032E0,-1.401741743E0,-1.873010397E-1
7.021955429E0,-2.954668283E0,-1.774969459E0,-1.127776727E-1
7.040852617E0,-3.351108074E0,-2.007702112E0,-2.062373012E-1
7.059749804E0,-3.087832928E0,-2.799971104E0,-3.723877668E-1
7.078647044E0,-2.366422176E0,-2.744994879E0,-1.769166440E-1
7.097544231E0,-1.338289976E0,-2.798138618E0,1.169008911E-1
7.116441419E0,-5.747309327E-1,-3.543982983E0,1.621035933E-1
7.135338659E0,-4.886014462E-1,-4.224543095E0,-1.604237556E-1
7.154235846E0,-3.493282795E-1,-3.860478401E0,-5.409815907E-1
7.173133034E0,3.671955466E-1,-3.175642252E0,-7.438592315E-1
7.192030273E0,1.186418056E0,-2.314958334E0,-6.650599241E-1
7.210927461E0,1.788102627E0,-1.206270576E0,-5.141043067E-1
7.229824648E0,2.188207626E0,1.517191827E-1,-5.061632991E-1
7.248721888E0,2.320761442E0,1.643484592E0,-4.438568950E-1
7.267619075E0,2.354357958E0,2.930539608E0,-1.274380088E-1
7.286516263E0,1.690977931E0,2.699028730E0,3.993413970E-2
7.305413502E0,1.080741525E0,4.858526289E-1,6.373427510E-1
7.324310690E0,6.030589342E-1,-1.041876316E0,5.420506001E-1
7.343207877E0,5.199837312E-2,-1.234980464E0,-1.304922402E-1
7.362105117E0,-5.295282006E-1,-6.246677041E-1,-4.224772453E-1
7.381002304E0,-1.228337526E0,9.491039068E-2,-3.186331987E-1
7.399899492E0,-1.707852602E0,3.932329267E-2,6.294017434E-1
7.418796679E0,-1.356004596E0,-3.192440569E-1,1.025230765E0
7.437693919E0,-3.713187873E-1,9.146674275E-1,1.330043554E0
7.456591106E0,5.602996349E-1,2.454689741E0,1.504745841E0
7.475488294E0,8.877137899E-1,4.116805077E0,1.920122027E0
7.494385534E0,7.081246972E-1,5.491287708E0,2.567085505E0
7.513282721E0,8.400676847E-1,5.721577168E0,3.308043242E0
7.532179909E0,1.147934675E0,2.669097185E0,2.437586069E0
7.551077148E0,9.872818589E-1,-3.442887962E-1,-4.627931416E-1
7.569974336E0,1.073411345E0,-3.153498843E-2,-9.961391687E-1
7.588871523E0,1.650662065E0,1.776038408E0,-3.406237066E-1
7.607768763E0,3.396539927E0,5.284821510E0,3.606289625E-1
7.626665950E0,2.586479902E0,5.039260864E0,3.985014856E-1
7.645563138E0,4.650074616E-2,2.518828630E0,-3.265742064E-1
7.664460377E0,-1.086620927E0,1.138848305E0,-6.063422561E-1
7.683357565E0,-4.488963783E-1,2.318470716E0,-3.357369304E-1
7.702254752E0,4.362213016E-1,2.725905895E0,-4.863871261E-2
7.721151992E0,5.822901726E-1,1.958681703E0,1.504974961E-1
7.740049179E0,3.531460762E-1,8.059365749E-1,2.335727215E-1
7.758946367E0,2.285332382E-1,2.366269529E-1,2.964899838E-1
7.777843606E0,1.833305359E-1,2.201340795E-1,3.337516785E-1
7.796740794E0,2.981698215E-1,4.235462248E-1,2.457896620E-1
7.815637981E0,2.810660899E-1,9.000070691E-1,1.205659807E-1
7.834535221E0,-3.474193811E-2,8.957311511E-1,-9.567394853E-2
7.853432409E0,-3.046600707E-2,2.152473032E-1,-3.375694752E-1
7.872329596E0,2.737359405E-1,-7.352310419E-1,-5.892385244E-1
7.891226836E0,2.615189850E-1,-1.918518543E0,-1.064554095E0
7.910124023E0,4.283566400E-2,-2.048018217E0,-1.690672517E0
7.929021211E0,-3.334462345E-1,-1.209935665E0,-2.049850702E0
7.947918398E0,-9.339091182E-1,-1.582552552E0,-1.690672517E0
7.966815638E0,-1.921649098E0,-2.971619129E0,-8.251019120E-1
7.985712825E0,-2.857543468E0,-2.434073687E0,-2.709871233E-1
8.004610065E0,-3.045073509E0,-1.644248128E0,-5.086066723E-1
8.023507252E0,-2.760418653E0,-1.225206852E0,-7.206470370E-1
8.042404440E0,-2.353594542E0,-1.715106368E0,-4.560738206E-1
8.061301627E0,-2.225927353E0,-2.888544083E0,-3.418453932E-1
8.080198867E0,-2.100627422E0,-3.735178232E0,-2.783172727E-1
8.099096054E0,-1.693192244E0,-3.835433483E0,-1.530935913E-1
8.117993242E0,-1.180691361E0,-3.692419052E0,-1.653105468E-1
8.136890481E0,-7.640935779E-1,-3.989367008E0,-5.116609335E-1
8.155787669E0,-3.523825109E-1,-4.499424458E0,-1.138466597E0
8.174684856E0,1.301868260E-1,-4.277687073E0,-1.649134874E0
8.193582044E0,5.767925382E-1,-3.239170313E0,-1.705332875E0
8.212479284E0,1.144880533E0,-2.129871607E0,-1.309503794E0
8.231376471E0,1.782605052E0,-1.145185947E0,-8.855758309E-1
8.250273659E0,2.179044962E0,-9.689565003E-2,-6.510104537E-1
8.269170846E0,2.241962194E0,9.623134732E-1,-4.475219846E-1
8.288068086E0,2.252346516E0,2.264716148E0,-2.294494957E-1
8.306965273E0,2.023889780E0,3.137006044E0,-2.337254286E-1
8.325862461E0,1.124722481E0,1.619661450E0,-2.001288384E-1
8.344759700E0,4.459948540E-1,-9.869000912E-1,2.305184901E-1
8.363656888E0,1.900498569E-1,-1.746870399E0,5.703786388E-2
8.382554075E0,2.016559541E-1,-8.720608354E-1,-2.777064443E-1
8.401451263E0,9.849912487E-3,-1.262163222E-1,-6.815528274E-1
8.420348450E0,-3.865899444E-1,3.532987833E-1,-1.146102175E-1
8.439245690E0,-6.706339121E-1,2.983225286E-1,7.454627156E-1
8.458142877E0,-1.428619027E-1,-1.146102175E-1,1.265293717E0
8.477040065E0,3.513135314E-1,7.430193424E-1,1.673950553E0
8.495937252E0,7.325585485E-1,1.202987313E0,2.008694887E0
8.514834492E0,6.452074051E-1,2.651993275E0,2.277544022E0
8.533731679E0,7.191199064E-1,4.078932762E0,2.653215170E0
8.552628867E0,1.220014691E0,4.151623249E0,2.675205469E0
8.571526106E0,1.394106150E0,1.675248623E0,5.835881829E-1
8.590423294E0,1.377613306E0,-8.836669326E-1,-2.042520523E0
8.609320481E0,1.284764528E0,1.040730998E-1,-1.930735469E0
8.628217669E0,2.711703777E0,3.695320606E0,-8.232693672E-1
8.647114909E0,3.430747271E0,5.185253143E0,8.025006205E-2
8.666012096E0,1.898666024E0,2.946421862E0,-9.750649333E-2
8.684909284E0,1.760003716E-1,1.344703913E0,-4.157579243E-1
8.703806471E0,-3.224509954E-1,1.681357026E0,-4.682907760E-1
8.722703659E0,3.226037025E-1,2.675205469E0,-1.384332627E-1
8.741600898E0,6.617003083E-1,2.420482159E0,2.073062956E-1
8.760498086E0,5.187620521E-1,8.902335167E-1,3.966689408E-1
8.779395273E0,2.688491642E-1,-5.825192332E-1,4.571428299E-1
8.798292461E0,1.613400280E-1,-6.087856293E-1,2.671693265E-1
8.817189700E0,3.800233603E-1,3.490228653E-1,8.269345015E-2
8.836086888E0,7.276718020E-1,8.181535602E-1,-9.200886637E-2
8.854984075E0,5.822901726E-1,3.502445519E-1,-3.149681091E-1
8.873881263E0,3.726931810E-1,2.527380548E-2,-3.620033562E-1
8.892778450E0,3.354314864E-1,-2.874799967E-1,-3.119138777E-1
8.911675690E0,5.810684711E-2,-1.360814929E0,-7.499676943E-1
8.930572877E0,-2.894652486E-1,-1.795127392E0,-1.522689462E0
8.949470065E0,-6.895701885E-1,-1.485427856E0,-1.963110328E0
8.968367252E0,-1.484282494E0,-1.994263530E0,-1.898971438E0
8.987264440E0,-2.564947605E0,-2.606332541E0,-1.219709277E0
9.006161679E0,-3.215499878E0,-1.437781692E0,-5.867951512E-1
9.025058867E0,-3.188622713E0,-2.349471301E-1,-6.014555097E-1
9.043956054E0,-2.784241915E0,-6.918608546E-1,-6.571189165E-1
9.062853242E0,-2.427506924E0,-2.062678576E0,-2.954210043E-1
9.081750429E0,-2.319997787E0,-2.939244270E0,-1.537044346E-1
9.100647669E0,-2.135445595E0,-3.259328365E0,-3.021403253E-1
9.119544856E0,-1.781154275E0,-3.091345310E0,-3.021403253E-1
9.138442044E0,-1.102502942E0,-3.228175163E0,-1.390441060E-1
9.157339231E0,-2.717506886E-1,-3.746784449E0,-5.780142173E-2
9.176236419E0,3.855973482E-2,-4.523858547E0,-2.722088099E-1
9.195133659E0,-1.526354551E-1,-4.197666168E0,-6.699467301E-1
9.214030846E0,3.130592173E-3,-2.697348833E0,-9.692618847E-1
9.232928034E0,6.274928451E-1,-1.428008199E0,-1.120141149E0
9.251825221E0,1.235285878E0,-5.788541436E-1,-1.062721491E0
9.270722409E0,1.680593491E0,2.433462739E-1,-9.680401683E-1
9.289619648E0,1.958528996E0,1.376467943E0,-8.684720993E-1
9.308516836E0,2.225469351E0,2.505389929E0,-4.334724844E-1
9.327414023E0,1.970135093E0,2.629391909E0,6.742226332E-2
9.346311211E0,8.858812451E-1,3.716242015E-1,7.291989028E-2
9.365208398E0,2.804552615E-1,-1.256971002E0,2.989333868E-1
9.384105638E0,2.695363574E-2,-8.134194613E-1,5.154023692E-2
9.403002825E0,-2.186069638E-1,-3.088596463E-1,-2.569376230E-1
9.421900013E0,-3.102340400E-1,-6.142832637E-1,-5.061632991E-1
9.440797200E0,-4.696651995E-1,-7.810446024E-1,-5.098283887E-1
9.459694388E0,-7.164474726E-1,3.203130364E-1,5.658736229E-1
9.478591575E0,-1.756185899E-3,6.184064746E-1,1.543229222E0
9.497488815E0,5.456393361E-1,7.216396928E-1,1.478479385E0
9.516386002E0,6.885775924E-1,1.768708229E0,1.366694331E0
9.535283190E0,3.415399790E-1,2.998343706E0,1.556057096E0
9.554180377E0,7.215633243E-2,4.732615471E0,2.000143051E0
9.573077565E0,4.026246965E-1,5.381335258E0,2.405210972E0
9.591974804E0,7.692093849E-1,2.616564274E0,1.381354690E0
9.610871992E0,1.009883285E0,8.391514421E-2,-7.963921428E-1
9.629769179E0,1.191304922E0,7.375217080E-1,-7.988355160E-1
9.648666367E0,1.653105378E0,2.168813229E0,-1.940203607E-1
9.667563606E0,2.918780804E0,4.185219765E0,2.018086612E-1
9.686460794E0,2.477138281E0,3.940270185E0,2.195232362E-1
9.705357981E0,6.268820167E-1,2.085737944E0,-5.169294775E-2
9.724255169E0,-7.225559354E-1,1.231086254E0,-1.604237556E-1
9.743152356E0,-8.239566088E-1,2.113837004E0,-1.934095174E-1
9.762049544E0,-1.819561273E-1,2.821197987E0,-2.355579734E-1
9.780946784E0,2.639623582E-1,2.300756216E0,-2.685437202E-1
9.799843971E0,5.419742465E-1,1.310496449E0,-2.477749139E-1
9.818741159E0,7.795938253E-1,5.255576968E-1,-7.612683624E-2
9.837638346E0,7.203416228E-1,1.187334359E-1,1.804290116E-1
9.856535534E0,5.138752460E-1,2.317401767E-1,2.280751020E-1
9.875432773E0,1.515664756E-1,7.509603500E-1,4.726430774E-2
9.894329961E0,-2.998496592E-1,1.087537169E0,-1.109451354E-1
9.913227148E0,-4.507289231E-1,8.890118003E-1,-2.392230630E-1
9.932124336E0,-2.796916962E-1,5.884749889E-1,-2.099023908E-1
9.951021523E0,4.161396995E-2,4.235462248E-1,-1.506502032E-1
9.969918711E0,1.650051177E-1,1.388913989E-1,-2.459423840E-1
9.988815898E0,-2.424300015E-1,-9.655204415E-1,-6.155049801E-1
1.000771314E1,-8.441145420E-1,-1.654021621E0,-1.223985195E0
1.002661032E1,-1.290033102E0,-1.443279386E0,-1.572168112E0
1.004550751E1,-1.713961005E0,-1.999761224E0,-1.591104388E0
1.006440470E1,-2.186222315E0,-2.529365778E0,-1.249640822E0
1.008330189E1,-2.588770628E0,-2.044963837E0,-8.733588457E-1
1.010219908E1,-2.771414042E0,-1.258803487E0,-7.420266867E-1
1.012109632E1,-2.513025522E0,-1.040043831E0,-6.265766025E-1
1.013999350E1,-2.277849436E0,-1.517191887E0,-3.412345648E-1
1.015889069E1,-2.417122602E0,-2.420634985E0,-2.709871233E-1
1.017778788E1,-2.405516624E0,-3.181139708E0,-3.351260722E-1
1.019668506E1,-1.779321671E0,-3.525657654E0,-2.380013615E-1
1.021558225E1,-9.235246778E-1,-3.532377005E0,-1.341573298E-1
1.023447944E1,-3.945309818E-1,-3.727237225E0,-3.583382666E-1
1.025337668E1,-1.648524106E-1,-4.064501286E0,-9.472714067E-1
1.027227387E1,8.987089992E-2,-3.691197157E0,-1.472599983E0
1.029117105E1,4.490490854E-1,-2.683910131E0,-1.596602082E0
1.031006824E1,1.002553105E0,-1.983879209E0,-1.266744494E0
1.032896543E1,1.554148197E0,-9.917868972E-1,-7.188144922E-1
1.034786262E1,1.927375793E0,1.584385037E-1,-3.558948934E-1
1.036675980E1,1.927986622E0,1.110749364E0,-2.575484812E-1
1.038565699E1,1.842468023E0,1.895153642E0,-1.085017473E-1
1.040455418E1,1.977465272E0,2.683757544E0,2.592283189E-1
1.042345142E1,1.811314821E0,2.582356691E0,5.231143236E-1
1.044234861E1,8.736643195E-1,-5.902311578E-2,3.832302988E-1
1.046124579E1,6.543701142E-2,-1.791462302E0,-3.336753324E-2
1.048014298E1,2.462477982E-1,-1.369977713E0,-2.905342281E-1
1.049904017E1,5.242596865E-1,-2.056264579E-1,-5.434249640E-1
1.051793736E1,4.288911223E-1,-8.590039611E-2,-7.829535007E-1
1.053683454E1,2.670166194E-1,-4.375193641E-2,-3.412345648E-1
1.055573173E1,1.778329015E-1,1.041112781E0,1.165725589E0
1.057462892E1,8.516737819E-1,8.957311511E-1,2.110782623E0
1.059352616E1,1.151599765E0,6.031352878E-1,1.797952533E0
1.061242335E1,8.425110579E-1,1.009959579E0,1.494361520E0
1.063132053E1,2.150945961E-1,2.004495382E0,1.415562153E0
1.065021772E1,-1.379751265E-1,3.212140322E0,1.496804833E0
1.066911491E1,-1.483595222E-1,3.132119417E0,1.656235933E0
1.068801210E1,1.839413792E-1,1.190770388E0,6.294017434E-1
1.070690928E1,7.576032877E-1,1.724879891E-1,-9.668185115E-1
1.072580647E1,1.259719729E0,1.107084274E0,-1.009577751E0
1.074470371E1,2.070314169E0,2.604347229E0,-5.049416423E-1
1.076360090E1,3.301247597E0,4.134519577E0,-6.024480984E-2
1.078249809E1,2.398949862E0,2.524326324E0,-6.879667193E-2
1.080139527E1,4.814240038E-1,7.595121861E-1,-1.567586809E-1
1.082029246E1,-5.710658431E-1,9.476531744E-1,-2.557159364E-1
1.083918965E1,-4.708868861E-1,2.030150890E0,-4.010975957E-1
1.085808684E1,8.681666851E-2,2.339239597E0,-4.010975957E-1
1.087698402E1,4.802022874E-1,1.927528501E0,-1.237729266E-1
1.089588126E1,6.421532035E-1,1.219480157E0,1.724879891E-1
1.091477845E1,7.337802649E-1,4.846309423E-1,3.960580826E-1
1.093367564E1,8.492304087E-1,2.237991691E-1,5.163949728E-1
1.095257282E1,8.211314082E-1,3.673482835E-1,4.388174117E-1
1.097147001E1,4.178958833E-1,5.609868765E-1,3.618506491E-1
1.099036720E1,-8.483141661E-2,7.393542528E-1,1.718771458E-1
1.100926439E1,-3.908658922E-1,7.411867976E-1,-9.384141117E-2
1.102816163E1,-4.098021686E-1,3.233672678E-1,-4.346941710E-1
1.104705882E1,-6.039752439E-2,-1.921878159E-1,-6.595623493E-1
1.106595600E1,4.319453537E-1,-7.089645863E-1,-6.699467301E-1
1.108485319E1,5.963396430E-1,-1.018053293E0,-9.619317055E-1
1.110375038E1,3.329881132E-1,-1.211157441E0,-1.331494331E0
1.112264756E1,-3.029038906E-1,-1.713273883E0,-1.500088215E0
1.114154475E1,-1.344398499E0,-2.333283901E0,-1.465269804E0
1.116044199E1,-2.319997787E0,-2.719339371E0,-1.097539783E0
1.117933918E1,-2.900913715E0,-2.040077209E0,-8.263236284E-1
1.119823637E1,-3.004146814E0,-1.092653036E0,-8.574768305E-1
1.121713355E1,-2.684062958E0,-9.007706642E-1,-8.678612709E-1
1.123603074E1,-2.348096848E0,-1.818950415E0,-6.008446217E-1
1.125492793E1,-2.324273825E0,-2.889154911E0,-3.907131851E-1
1.127382512E1,-2.063365698E0,-3.256273985E0,-2.740413547E-1
1.129272236E1,-1.520933270E0,-3.182972431E0,-1.995179802E-1
1.131161954E1,-1.012097597E0,-3.415094376E0,-1.335464865E-1
1.133051673E1,-4.782170355E-1,-3.793285131E0,-1.213295385E-1
1.134941392E1,-1.220930964E-1,-3.908735275E0,-3.320718408E-1
1.136831111E1,9.231429547E-2,-3.500612974E0,-7.243121266E-1
1.138720829E1,4.588226378E-1,-2.895263195E0,-1.051726222E0
1.140610548E1,8.602256775E-1,-2.074284554E0,-1.082879424E0
1.142500272E1,1.238950968E0,-1.067531943E0,-7.994463444E-1
1.144389991E1,1.681204319E0,-1.530935913E-1,-4.542413056E-1
1.146279710E1,2.059318781E0,8.725189567E-1,-2.557159364E-1
1.148169428E1,2.287164927E0,1.663031697E0,-8.284615725E-2
1.150059147E1,2.128955364E0,1.799861431E0,1.627144367E-1
1.151948866E1,1.862625957E0,1.064324975E0,3.123720288E-1
1.153838590E1,1.439308882E0,-3.858264089E-1,7.924979329E-1
1.155728309E1,6.268820167E-1,-9.856784344E-1,7.411867976E-1
1.157618027E1,-4.733302593E-1,-5.232670307E-1,-9.017632902E-2
1.159507746E1,-1.133045316E0,-7.694385052E-1,-3.204657435E-1
1.161397465E1,-1.173972130E0,-6.173375249E-1,1.633252800E-1
1.163287184E1,-1.277816057E0,-9.026032090E-1,5.133407712E-1
1.165176902E1,-5.710658431E-1,-6.252785325E-1,6.373427510E-1
1.167066621E1,-6.032116711E-3,7.876111865E-1,9.433772564E-1
1.168956345E1,3.390965760E-1,2.477291107E0,9.641460180E-1
1.170846064E1,3.788016438E-1,3.477247953E0,1.197489738E0
1.172735782E1,1.814979911E-1,3.926220655E0,1.898131490E0
1.174625501E1,4.423297644E-1,3.644009352E0,2.504779100E0
1.176515220E1,1.277434349E0,1.711899400E0,9.617026448E-1
1.178404939E1,1.617676258E0,9.800280929E-1,-9.894198179E-1
1.180294663E1,1.717244387E0,1.493750572E0,-5.055524707E-1
1.182184382E1,2.656727552E0,2.661767006E0,-6.490251981E-3
1.184074100E1,3.513211727E0,3.061260939E0,6.131379306E-2
1.185963819E1,2.069703341E0,1.165114760E0,-9.200886637E-2
1.187853538E1,3.348206580E-1,7.625664473E-1,-1.640888453E-1
1.189743256E1,-3.615452349E-1,1.637376070E0,-2.746522129E-1
1.191632980E1,-4.959316254E-1,2.471182585E0,-3.687226772E-1
1.193522699E1,-1.679066420E-1,2.709413052E0,-3.607816696E-1
1.195412418E1,2.328091562E-1,2.347180605E0,-1.921878159E-1
1.197302137E1,4.740938246E-1,1.483977079E0,5.642701685E-2
1.199191855E1,7.124006152E-1,6.849888563E-1,3.270323575E-1
1.201081574E1,9.860602021E-1,3.068743944E-1,5.487698913E-1
1.202971293E1,1.081963181E0,4.198811352E-1,5.609868765E-1
1.204861017E1,8.528954983E-1,5.634302497E-1,4.455367327E-1
1.206750736E1,3.763582706E-1,4.455367327E-1,3.343625069E-1
1.208640454E1,-1.789018959E-1,4.638621509E-1,1.541625708E-1
1.210530173E1,-6.229878664E-1,7.546254396E-1,-1.659213901E-1
1.212419892E1,-7.402704954E-1,5.964159966E-1,-4.560738206E-1
1.214309611E1,-5.460211039E-1,2.573957741E-1,-6.020663381E-1
1.216199335E1,-1.978381574E-1,-3.772745430E-1,-8.287670016E-1
1.218089053E1,5.749600008E-2,-1.233758807E0,-1.157402873E0
1.219978772E1,2.267006934E-1,-1.316833973E0,-1.269187927E0
1.221868491E1,8.742751181E-2,-7.327876687E-1,-1.332105160E0
1.223758210E1,-8.105179667E-1,-1.382805467E0,-1.149461865E0
1.225647928E1,-2.160490513E0,-3.103562117E0,-8.092198968E-1
1.227537652E1,-3.060344696E0,-2.933746576E0,-4.010975957E-1
1.229427371E1,-3.299796820E0,-1.473210931E0,-4.921138287E-1
1.231317090E1,-3.245431423E0,-4.041518271E-1,-9.026795626E-1
1.233206809E1,-2.762251377E0,-8.519028425E-1,-9.521581531E-1
1.235096527E1,-2.072528362E0,-2.151862144E0,-6.821636558E-1
1.236986246E1,-1.571633697E0,-3.056526899E0,-3.962107897E-1
1.238875970E1,-9.827768803E-1,-3.265436649E0,-1.494285166E-1
1.240765689E1,-5.399126410E-1,-3.204351902E0,-4.497363046E-2
1.242655408E1,-4.433987439E-1,-3.210460424E0,-1.793600321E-1
1.244545126E1,-3.291703165E-1,-3.248943806E0,-5.104392171E-1
1.246434845E1,-7.872293890E-2,-3.138380527E0,-8.672503829E-1
1.248324569E1,2.798444033E-1,-2.973451853E0,-1.132358074E0
1.250214288E1,6.433748603E-1,-2.525089741E0,-1.123806238E0
1.252104006E1,9.243646264E-1,-1.685174823E0,-9.173398614E-1
1.253993725E1,1.247502804E0,-7.089645863E-1,-6.711684465E-1
1.255883444E1,1.635390878E0,2.183015347E-1,-4.982222915E-1
1.257773168E1,1.901720285E0,1.029506683E0,-3.113030195E-1
1.259662887E1,2.060540438E0,1.815743446E0,-4.069769755E-2
1.261552605E1,2.298770905E0,2.719186544E0,2.952682972E-1
1.263442324E1,2.084363461E0,2.521883011E0,5.530458093E-1
1.265332043E1,7.007945180E-1,-2.709871233E-1,4.467584193E-1
1.267221767E1,4.352286924E-3,-1.402963400E0,9.063446522E-2
1.269111486E1,1.295759678E-1,-7.315659523E-1,-4.114819765E-1
1.271001204E1,2.138728946E-1,1.333937645E-1,-7.114843726E-1
1.272890923E1,1.417929232E-1,2.290677221E-4,-7.169819474E-1
1.274780642E1,-1.251473278E-1,-2.312820405E-1,-9.200886637E-2
1.276670366E1,-1.642415524E-1,5.273902416E-1,7.949413657E-1
1.278560085E1,1.900498569E-1,4.773007631E-1,1.158395529E0
1.280449803E1,4.062897861E-1,7.124769688E-1,1.110749364E0
1.282339522E1,1.998234093E-1,1.290949345E0,1.237805605E0
1.284229241E1,-1.196497083E-1,1.634321809E0,1.624471903E0
1.286118965E1,-2.008160390E-2,3.321481869E-2,1.696551919E0
1.288008684E1,3.928511441E-1,-2.350998402E0,2.372378111E-1
1.289898402E1,1.003163934E0,-1.311947227E0,-5.916818976E-1
1.291788121E1,1.934095144E0,8.096016645E-1,-4.664582312E-1
1.293677845E1,3.235276222E0,2.567085505E0,-4.786751866E-1
1.295567564E1,3.909651518E0,3.438764572E0,-3.662792742E-1
1.297457283E1,3.366608381E0,2.144990206E0,-1.732515544E-1
1.299347006E1,1.541320324E0,-1.830251068E-1,3.199312463E-2
1.301236725E1,3.140518367E-1,1.278961450E-1,2.164690048E-1
1.303126444E1,-9.399411827E-2,9.757521152E-1,4.614187479E-1
1.305016163E1,-1.831778288E-1,1.220701933E0,5.646519065E-1
1.306905882E1,9.048175067E-2,1.073487759E0,-7.551599294E-2
1.308795605E1,6.006155610E-1,1.000186086E0,-3.937674165E-1
1.310685324E1,1.168703556E0,7.796701789E-1,-1.870719716E-2
1.312575043E1,1.021489382E0,-1.626380906E-2,3.337516785E-1
1.314464767E1,2.602972984E-1,-2.911450863E-1,2.433462739E-1
1.316354486E1,-1.911188364E-1,2.109713703E-1,3.443651274E-2
1.318244204E1,-1.966164559E-1,6.434512138E-1,-1.561478376E-1
1.320133923E1,-2.130329795E-2,7.191963196E-1,-2.880908251E-1
1.322023647E1,1.698918939E-1,4.583645165E-1,-2.728196681E-1
1.323913366E1,3.946836889E-1,-5.596888065E-2,-2.569376230E-1
1.325803085E1,6.067240238E-1,-5.220453143E-1,-2.300603539E-1
1.327692803E1,6.519267559E-1,-7.944832444E-1,-1.598129123E-1
1.329582527E1,1.735569835E-1,-1.250862479E0,-1.726407111E-1
1.331472246E1,-6.553627253E-1,-1.545901656E0,-2.190651000E-1
1.333361965E1,-1.205125332E0,-1.627755284E0,-2.948101461E-1
1.335251684E1,-1.443355680E0,-1.676622987E0,-5.287646651E-1
1.337141408E1,-1.528874278E0,-1.900803924E0,-5.269321203E-1
1.339031126E1,-1.454350948E0,-2.462172508E0,-2.520508468E-1
1.340920845E1,-1.332181573E0,-3.140213013E0,1.156791970E-1
1.342810564E1,-1.277816057E0,-3.635610104E0,2.256316990E-1
1.344700288E1,-1.093340278E0,-3.801226139E0,2.409028858E-1
1.346590006E1,-6.156576872E-1,-3.795117617E0,2.527380548E-2
1.348479725E1,-2.399866134E-1,-3.298422575E0,-2.844257653E-1
1.350369449E1,-2.821350694E-1,-2.576400995E0,-5.678588748E-1
1.352259168E1,-4.886014462E-1,-2.178128719E0,-7.689039707E-1
1.354148887E1,-4.977641702E-1,-1.911188364E0,-7.481352091E-1
1.356038605E1,-2.454842478E-1,-1.775580287E0,-5.770215988E-1
1.357928329E1,2.187596709E-1,-1.794516563E0,-4.811185598E-1
1.359818048E1,8.431219459E-1,-2.214168549E0,-6.345176101E-1
1.361707767E1,1.400825500E0,-2.707122326E0,-1.074938416E0
1.363597486E1,1.640888453E0,-2.442014694E0,-1.444501042E0
1.365487210E1,1.882173061E0,-1.528797984E0,-1.506196618E0
1.367376928E1,2.395895720E0,-7.437828779E-1,-1.368755937E0
1.369266647E1,2.974368095E0,-5.183802843E-1,-1.048672080E0
1.371156366E1,3.423417091E0,-6.894174814E-1,-6.571189165E-1
1.373046090E1,3.777708530E0,-8.506811857E-1,-1.763057858E-1
1.374935809E1,3.550473452E0,-5.177693963E-1,8.819106966E-2
1.376825527E1,2.541277409E0,-6.442148089E-1,-6.635328382E-2
1.378715246E1,1.309198380E0,-2.050461531E0,-4.151470661E-1
1.380604970E1,4.856999218E-1,-2.958180666E0,-4.224772453E-1
1.382494689E1,5.010474920E-1,-1.325996637E0,-1.433200389E-1
1.384384408E1,7.111788988E-1,-5.879404955E-3,-2.420482226E-2
1.386274132E1,5.144860744E-1,-8.903862238E-1,-1.992889121E-2
1.388163850E1,6.488724947E-1,-6.833090186E-1,-2.856474519E-1
1.390053569E1,1.092958450E0,2.341835648E-1,-4.359158874E-1
1.391943288E1,1.609124422E0,8.835142255E-1,-5.379273891E-1
1.393833012E1,2.051377773E0,1.187105298E0,-6.173375249E-1
1.395722730E1,1.949366331E0,4.107184112E-1,-3.522298038E-1
1.397612449E1,1.698918939E0,-5.641937852E-1,-7.307260484E-2
1.399502168E1,1.623173833E0,-8.561787605E-1,1.309503764E-1
1.401391892E1,1.487565756E0,-7.022452950E-1,2.042520493E-1
1.403281611E1,1.419150949E0,-6.655944586E-1,1.187334359E-1
1.405171329E1,1.061805248E0,-1.004614711E0,4.237752780E-2
1.407061053E1,4.673745036E-1,-8.268581033E-1,-8.284615725E-2
1.408950772E1,3.360423446E-1,1.040730998E-1,-3.051945567E-1
1.410840491E1,5.822901726E-1,8.016606569E-1,-4.829511046E-1
1.412730215E1,9.182561636E-1,4.076641798E-1,-2.990860939E-1
1.414619934E1,1.225512266E0,-4.175904691E-1,1.059056446E-1
1.416509652E1,1.496117592E0,-6.527666450E-1,2.482330501E-1
1.418399376E1,1.477181435E0,-8.824452162E-1,1.645469815E-1
1.420289095E1,7.417212725E-1,-1.381583810E0,-7.062921673E-2
1.422178814E1,-1.611873209E-1,-1.107313395E0,-2.789281309E-1
1.424068533E1,-6.132143140E-1,-4.737884104E-1,-2.789281309E-1
1.425958256E1,-4.953207672E-1,-4.456894398E-1,-2.233410329E-1
1.427847975E1,-1.446944475E-1,-8.256364465E-1,-1.775274873E-1
1.429737694E1,1.485122442E-1,-1.128082156E0,-9.567394853E-2
1.431627418E1,4.044572413E-1,-1.072418690E0,-3.153498843E-2
1.433517137E1,6.207735538E-1,-6.845307350E-1,8.780929260E-3
1.435406855E1,8.107470274E-1,-2.887016833E-1,6.558972597E-2
1.437296574E1,9.231429100E-1,-3.894914687E-1,9.185615927E-2
1.439186298E1,8.974873424E-1,-7.498913407E-1,1.486649513E-1
1.441076017E1,6.372663975E-1,-8.213604689E-1,1.052947938E-1
1.442965741E1,2.108186632E-1,-7.162947655E-1,2.893888950E-2
1.444855460E1,-7.017108053E-2,-6.381063461E-1,-2.970244735E-2
1.446745178E1,-5.123481527E-2,-6.655944586E-1,-2.184542567E-1
1.448634902E1,1.277434379E-1,-5.012765527E-1,-3.027511835E-1
1.450524621E1,1.992125660E-1,-4.084277451E-1,-2.813715041E-1
1.452414340E1,2.340308577E-1,-5.299863815E-1,-2.325037420E-1
1.454304064E1,3.788016438E-1,-6.356629133E-1,-1.903552711E-1
1.456193783E1,5.248705149E-1,-7.254574895E-1,-1.854684949E-1
1.458083501E1,6.171084642E-1,-7.511130571E-1,-1.854684949E-1
1.459973225E1,6.140542030E-1,-6.918608546E-1,-1.970745921E-1
1.461862944E1,5.419742465E-1,-6.002337933E-1,-2.037939131E-1
1.463752663E1,3.910185993E-1,-4.401918054E-1,-1.879118830E-1
1.465642366E1,1.802763045E-1,-2.691545784E-1,-1.683647782E-1
1.467532105E1,-9.093988687E-2,-1.809635013E-2,-1.830251068E-1
1.469421824E1,-3.248943985E-1,2.683910131E-1,-1.732515544E-1
1.471311548E1,-5.173112750E-1,4.082750380E-1,-1.152210608E-1
1.473201267E1,-6.541410685E-1,5.524349809E-1,-2.909160033E-2
1.475090986E1,-7.042305470E-1,6.043570042E-1,5.092938989E-2
1.476980710E1,-6.944569945E-1,6.006919146E-1,1.010188684E-1
1.478870428E1,-5.918346643E-1,5.041780472E-1,2.146364599E-1
1.480760147E1,-4.641675651E-1,2.323510200E-1,2.861055732E-1
1.482649871E1,-3.242835402E-1,1.272853017E-1,3.172588050E-1
1.484539590E1,-2.302130610E-1,1.016297117E-1,3.007659316E-1
1.486429314E1,-2.057791650E-1,6.925480813E-2,3.239781260E-1
1.488319033E1,-2.241045833E-1,2.622825503E-1,3.514662385E-1
1.490208751E1,-2.729723752E-1,5.573217869E-1,3.795652092E-1
1.492098475E1,-2.894652486E-1,6.397861242E-1,3.520770967E-1
1.493988194E1,-3.542150557E-1,8.566369414E-1,3.148154020E-1
1.495877913E1,-4.165214598E-1,9.720870852E-1,3.581855595E-1
1.497767637E1,-5.276956558E-1,8.383114934E-1,3.539096415E-1
1.499657355E1,-5.447993875E-1,8.468633890E-1,4.094967246E-1
1.501547074E1,-5.796176791E-1,7.815027237E-1,4.278221428E-1
1.503436798E1,-7.085064650E-1,8.957311511E-1,6.068003774E-1
1.505326517E1,-6.486434340E-1,7.607339025E-1,8.914552331E-1
1.507216236E1,-3.780381083E-1,3.691807985E-1,9.855256677E-1
1.509105960E1,-1.789018959E-1,-3.817795368E-4,7.931088209E-1
1.510995678E1,-4.199574701E-3,-1.194969937E-1,5.121190548E-1
1.512885397E1,3.030565977E-1,-9.628479928E-2,1.749313772E-1
1.514775121E1,6.103891134E-1,-2.422772944E-1,-1.366007179E-1
1.516664840E1,5.267030597E-1,-4.970006049E-1,-4.182012975E-1
1.518554564E1,1.008661538E-1,-4.243097901E-1,-6.931589246E-1
1.520444283E1,-3.523825109E-1,-1.931804419E-2,-8.257128000E-1
1.522334001E1,-5.301390886E-1,3.233672678E-1,-8.422056437E-1
1.524223725E1,-4.953207672E-1,7.841751724E-2,-8.318212628E-1
1.526113444E1,-4.916556776E-1,-2.752630413E-1,-7.988355160E-1
1.528003163E1,-4.745519757E-1,-4.915029705E-1,-7.591304183E-1
1.529892887E1,-5.228089094E-1,-2.887016833E-1,-7.939487100E-1
1.531782605E1,-6.877376437E-1,1.733279042E-2,-8.251019120E-1
1.533672324E1,-7.482115626E-1,-1.585912257E-1,-8.092198968E-1
1.535562048E1,-6.584169865E-1,-8.250255585E-1,-8.006680608E-1
1.537451767E1,-6.235986948E-1,-8.146411777E-1,-8.312104344E-1
1.539341486E1,-5.490753055E-1,-1.683647782E-1,-1.030346632E0
1.541231210E1,-4.207974076E-1,-1.659213901E-1,-1.274074674E0
1.543120928E1,-6.669688225E-1,-4.737884104E-1,-1.293621778E0
1.545010647E1,-6.126034260E-1,-8.091435432E-1,-1.110367656E0
1.546900371E1,-3.529933691E-1,-1.167787194E0,-9.020686746E-1
1.548790090E1,-1.764585078E-1,-1.583163381E0,-8.855758309E-1
1.550679809E1,-5.184566230E-2,-1.679677248E0,-1.027292371E0
1.552569533E1,-5.428905040E-2,-1.606986403E0,-1.037676811E0
1.554459251E1,-5.917582661E-2,-1.575222373E0,-9.747595191E-1
1.556348970E1,9.536852688E-2,-1.696170092E0,-8.049439788E-1
1.558238694E1,2.120403498E-1,-1.640583038E0,-5.855734348E-1
1.560128413E1,4.698179066E-1,-1.659519315E0,-5.238778591E-1
1.562018132E1,7.600467205E-1,-1.190388560E0,-4.414134920E-1
1.563907855E1,7.545490861E-1,-9.960628152E-1,-4.279748499E-1
1.565797574E1,7.899782062E-1,-9.093225002E-1,-5.000548363E-1
1.567687277E1,6.849125028E-1,-4.621823132E-1,-6.907155514E-1
1.569577017E1,4.637094140E-1,-3.418453932E-1,-7.493568659E-1
1.571466736E1,6.268820167E-1,-5.684697032E-1,-4.163687527E-1
1.573356454E1,1.110062122E0,-5.250995755E-1,-7.246175408E-2
1.575246178E1,9.665130973E-1,-2.862583101E-1,4.559211135E-1
1.577135897E1,9.933903813E-1,-5.593070388E-1,4.516451955E-1
1.579025621E1,1.122889996E0,-7.480587959E-1,1.244601328E-2
1.580915340E1,1.191915751E0,-8.726716638E-1,-2.050156146E-1
1.582805059E1,1.347681761E0,-8.763367534E-1,1.077381819E-1
1.584694782E1,1.416096687E0,-8.176954389E-1,6.367319226E-1
1.586584501E1,1.354401112E0,-5.525876880E-1,6.904864907E-1
1.588474220E1,1.212073684E0,-1.231620759E-1,4.113292694E-1
1.590363944E1,1.294538021E0,1.773747802E-1,5.280010700E-1
1.592253663E1,1.524216652E0,1.244601328E-2,7.729508281E-1
1.594143382E1,1.821088433E0,-2.984752357E-1,5.964159966E-1
1.596033105E1,1.970135093E0,-5.403707623E-1,3.441360891E-1
1.597922824E1,2.025722265E0,-5.910710692E-1,4.241570532E-1
1.599812548E1,2.074589968E0,-4.542413056E-1,5.732038021E-1
1.601702267E1,2.218139172E0,8.208259940E-2,4.889068604E-1
1.603591986E1,2.507069826E0,5.622085333E-1,6.165739298E-1
1.605481710E1,2.798444033E0,8.383114934E-1,1.218258500E0
1.607371428E1,2.490576982E0,5.524349809E-1,1.132129073E0
1.609261152E1,2.368407488E0,1.718771458E-1,9.384904504E-1
1.611150871E1,2.525395393E0,-1.133885235E-1,8.297596574E-1
1.613040590E1,2.657949209E0,-1.689756215E-1,3.881170750E-1
1.614930314E1,2.566322088E0,-2.563267946E-1,-2.129566222E-1
1.616820032E1,2.150945902E0,-3.314609826E-1,-6.351284385E-1
1.618709751E1,1.420983434E0,-2.599918544E-1,-8.794673681E-1
1.620599475E1,6.158867478E-1,2.283041552E-2,-1.109756708E0
1.622489194E1,3.122956678E-2,6.061895490E-1,-1.312558055E0
1.624378918E1,-1.556897014E-1,1.034393430E0,-1.622257590E0
1.626268637E1,-2.252499200E-2,1.105862617E0,-2.027249336E0
1.628158355E1,1.185807213E-1,7.240830660E-1,-2.385205746E0
1.630048079E1,9.720107168E-2,-8.895463496E-2,-2.745605707E0
1.631937798E1,-5.978667364E-2,-8.268581033E-1,-3.140823841E0
1.633827522E1,-4.379011393E-1,-1.266744494E0,-3.482363939E0
1.635717241E1,-7.879166007E-1,-1.155570269E0,-3.818940639E0
1.637606944E1,-6.510868073E-1,-1.824142635E-1,-4.347323418E0
1.639496684E1,-3.481065929E-1,5.377746820E-1,-4.818286896E0
1.641386402E1,2.389939874E-2,9.238301516E-1,-5.308797359E0
1.643276126E1,4.667636752E-1,1.235973120E0,-5.859781265E0
1.645165845E1,7.618792653E-1,1.455878139E0,-6.405955315E0
1.647055564E1,7.740961909E-1,1.675859451E0,-6.862868786E0
1.648945288E1,6.366555691E-1,2.172478199E0,-6.925175190E0
1.650835007E1,4.423297644E-1,2.920155287E0,-6.258740902E0
1.652724730E1,1.039203927E-1,3.807716370E0,-5.036359310E0
1.654614449E1,-3.462740481E-1,4.370994091E0,-3.761521101E0
1.656504168E1,-7.231668234E-1,4.271425724E0,-2.894652367E0
1.658393892E1,-7.793647647E-1,3.830928564E0,-2.590450525E0
1.660283611E1,-3.218401372E-1,3.515120506E0,-2.589839697E0
1.662173335E1,2.749576271E-1,3.328812122E0,-2.460950851E0
1.664063053E1,6.000047326E-1,3.292772055E0,-2.074284554E0
1.665952777E1,6.623111367E-1,3.350802660E0,-1.545901656E0
1.667842496E1,5.719057322E-1,3.203588486E0,-1.100594044E0
1.669732215E1,4.203392565E-1,2.827917337E0,-8.489249945E-1
1.671621939E1,2.621298432E-1,2.295258522E0,-5.519768596E-1
1.673511658E1,1.326302141E-1,1.661199093E0,-2.471640706E-1
1.675401382E1,-7.383616269E-2,1.248800874E0,-3.581092134E-2
1.677291100E1,-4.079696238E-1,1.108916879E0,2.832804248E-2
1.679180819E1,-7.750887871E-1,9.592592716E-1,-3.947600350E-2
1.681070543E1,-1.030422926E0,8.847358823E-1,-7.673768699E-2
1.682960262E1,-1.026147008E0,9.372687340E-1,8.399150101E-4
1.684849986E1,-7.744779587E-1,9.213867188E-1,2.952682972E-1
1.686739704E1,-4.055262208E-1,9.207758904E-1,5.481590629E-1
1.688629423E1,-8.055548370E-2,6.758261323E-1,4.748573899E-1
1.690519147E1,1.417929232E-1,-2.214321401E-3,2.958791554E-1
1.692408866E1,3.024457395E-1,-7.248466015E-1,1.083490327E-1
1.694298590E1,6.164975762E-1,1.285069883E-1,4.504998680E-3
1.696188309E1,9.768974781E-1,3.636831939E-1,-2.007396817E-1
1.698078027E1,1.331188917E0,2.152473032E-1,-4.542413056E-1
1.699967751E1,1.441141367E0,-4.130854458E-2,-3.259633780E-1
1.701857470E1,1.274380088E0,-5.281538367E-1,-2.355579734E-1
1.703747189E1,1.105175376E0,-9.465841651E-1,-3.326826990E-1
1.705636913E1,1.099066973E0,-1.203827262E0,-3.528406620E-1
1.707526632E1,1.153432369E0,-1.534906507E0,-3.620033562E-1
1.709416355E1,1.143658757E0,-1.731599212E0,-4.230880737E-1
1.711306074E1,1.143658757E0,-1.467713237E0,-4.456894398E-1
1.713195793E1,1.111894727E0,-1.088300705E0,-3.632250428E-1
1.715085517E1,9.524635673E-1,-7.682167888E-1,-4.090386033E-1
1.716975236E1,6.904101372E-1,-5.293754935E-1,-6.369609833E-1
1.718864960E1,4.979932308E-1,-3.406237066E-1,-8.635852933E-1
1.720754678E1,4.973823726E-1,-1.530935913E-1,-9.173398614E-1
1.722644397E1,5.499152541E-1,-1.463742703E-1,-9.039012194E-1
1.724534100E1,5.877877474E-1,-8.651123941E-2,-8.208259940E-1
1.726423840E1,5.969504714E-1,-2.237228118E-2,-4.701233208E-1
1.728313559E1,4.661528170E-1,3.783435225E-1,-3.076379597E-1
1.730203282E1,1.766112149E-1,7.906654477E-1,-3.461213410E-1
1.732093001E1,9.414683282E-2,6.984274983E-1,-4.310291111E-1
1.733982720E1,1.778329015E-1,3.966689408E-1,-5.513660312E-1
1.735872444E1,2.798444033E-1,1.010188684E-1,-6.093965173E-1
1.737762163E1,3.812450469E-1,3.270323575E-1,-5.855734348E-1
1.739651887E1,3.244362473E-1,5.848098993E-1,-1.934095174E-1
1.741541605E1,2.395284772E-1,9.491039068E-2,1.089598835E-1
1.743431324E1,3.354314864E-1,-3.825430945E-2,7.230904698E-2
1.745321048E1,3.042782843E-1,2.445679754E-1,2.061609412E-3
1.747210767E1,2.303657681E-1,4.223245382E-1,-2.237228118E-2
1.749100486E1,3.079433739E-1,4.705814719E-1,-2.542651631E-2
1.750990210E1,4.856999218E-1,3.801760674E-1,-5.596888065E-2
1.752879928E1,6.574243903E-1,3.056527078E-1,-1.396549493E-1
1.754769652E1,7.942541242E-1,4.363740087E-1,-3.302392960E-1
1.756659371E1,8.321266770E-1,3.838411570E-1,-4.267531633E-1
1.758549090E1,6.519267559E-1,2.091388255E-1,-3.558948934E-1
1.760438814E1,3.226037025E-1,1.132358089E-1,-3.577274382E-1
1.762328532E1,4.772244394E-2,2.445679754E-1,-3.632250428E-1
1.764218257E1,-1.556897014E-1,4.266004562E-1,-1.414874941E-1
1.766107975E1,-1.923405379E-1,3.441360891E-1,-1.870719716E-2
1.767997694E1,-5.001311749E-2,8.025006205E-2,-7.246175408E-2
1.769887418E1,1.460688561E-1,2.672456671E-3,-1.231620759E-1
1.771777137E1,1.356844455E-1,2.103605270E-1,-7.551599294E-2
1.773666861E1,-1.605764776E-1,3.410818279E-1,6.314633787E-2
1.775556579E1,-5.069268942E-1,9.002361447E-2,2.305184901E-1
1.777446298E1,-7.347729206E-1,-3.027511835E-1,4.345414639E-1
1.779336022E1,-9.137511253E-1,-6.600968242E-1,5.212817788E-1
1.781225741E1,-1.155035853E0,-7.566106915E-1,4.968478978E-1
1.783115465E1,-1.414645910E0,-6.643727422E-1,3.844519854E-1
1.785005184E1,-1.418921828E0,-3.021403253E-1,1.785964668E-1
1.786894902E1,-1.079290748E0,2.048628926E-1,-8.773294091E-2
1.788784626E1,-6.071057916E-1,7.527928948E-1,-3.003077805E-1
1.790674345E1,-2.583120465E-1,9.287168980E-1,-3.320718408E-1
1.792564069E1,-9.277242422E-2,3.429143727E-1,-1.989071369E-1
1.794453788E1,-7.864658721E-3,-4.212555289E-1,5.520532280E-2
1.796343507E1,6.910209358E-2,-5.770215988E-1,2.586174607E-1
1.798233230E1,9.720107168E-2,-3.540623486E-1,2.598391473E-1
1.800122949E1,5.810684711E-2,-1.390441060E-1,1.425564736E-1
1.802012673E1,1.779092662E-2,-1.076618303E-2,-1.137703005E-2
1.803902392E1,-3.596363217E-2,1.456107199E-1,-1.127776727E-1
1.805792111E1,-2.021140903E-1,2.317401767E-1,-6.329904497E-2
1.807681835E1,-4.226299524E-1,2.799971104E-1,8.574768156E-2
1.809571553E1,-5.411342978E-1,3.404709995E-1,2.079171389E-1
1.811461272E1,-5.002075434E-1,3.911713064E-1,1.914242655E-1
1.813350996E1,-5.674007535E-1,2.109713703E-1,5.887040496E-2
1.815240715E1,-9.058101177E-1,-1.543152928E-1,6.337540224E-3
1.817130439E1,-1.366388917E0,-2.325037420E-1,4.176668078E-2
1.819020158E1,-1.939363718E0,-1.103342846E-1,3.032093048E-1
1.820909876E1,-2.209434509E0,-2.685437202E-1,5.945834517E-1
1.822799600E1,-2.194774151E0,-7.285116911E-1,4.461475611E-1
1.824689319E1,-1.906988740E0,-1.598434567E0,1.773747802E-1
1.826579043E1,-1.328516483E0,-2.440181971E0,-4.741701856E-2
1.828468762E1,-6.382590532E-1,-2.473167896E0,-2.868691385E-1
1.830358486E1,4.833329096E-2,-1.638750434E0,-6.717792749E-1
1.832248204E1,6.262711287E-1,-1.359898746E-1,-1.407850266E0
1.834137923E1,9.457442760E-1,1.086315513E0,-2.148197174E0
1.836027647E1,1.000720501E0,1.526736379E0,-2.570903301E0
1.837917366E1,7.704311013E-1,1.522460461E0,-2.645426750E0
1.839807085E1,1.081963181E-1,8.743515015E-1,-2.219666243E0
1.841696809E1,-9.552887678E-1,1.798181683E-1,-1.182447553E0
1.843586527E1,-2.075582743E0,-4.866161942E-1,3.129828572E-1
1.845476251E1,-2.828833580E0,-1.425564766E0,1.031339288E0
1.847365970E1,-3.151360989E0,-1.548955917E0,1.099143267E0
1.849255689E1,-2.822114229E0,-6.710920930E-1,9.659785628E-1
1.851145413E1,-1.686472893E0,5.170058608E-1,5.182275176E-1
1.853035132E1,-2.082225531E-1,1.394793391E0,4.909684882E-2
1.854924855E1,8.009734750E-1,8.230403066E-1,-2.141783237E-1
1.856814574E1,9.158127308E-1,-1.142131686E0,-3.632250428E-1
1.858704293E1,7.160657048E-1,-9.740723372E-1,-6.962131858E-1
1.860594017E1,9.239064530E-3,-6.631510258E-1,-6.308525205E-1
1.862483736E1,-6.718556285E-1,-3.467321694E-1,-1.274380088E-1
1.864373454E1,-5.698441267E-1,6.257366538E-1,3.728458881E-1
1.866263178E1,6.177192926E-2,1.080206990E0,9.024504423E-1
1.868152897E1,5.712949038E-1,8.340355754E-1,1.024619937E0
1.870042621E1,5.890094638E-1,4.663055241E-1,5.438831449E-1
1.871932340E1,3.109976053E-1,8.025006205E-2,-7.001836598E-2
1.873822059E1,-2.069245093E-2,-1.359898746E-1,-2.966426909E-1
1.875711782E1,-1.691283286E-1,4.046099484E-1,-1.799708754E-1
1.877601501E1,5.749600008E-2,1.981893897E0,1.602710485E-1
1.879491225E1,3.769691288E-1,2.904884100E0,4.540885687E-1
1.881380944E1,3.904077411E-1,2.637333155E0,2.916032076E-1
1.883270663E1,3.978142887E-2,1.678302884E0,8.399150101E-4
1.885160387E1,-4.091913104E-1,5.365529656E-1,-3.642176837E-2
1.887050105E1,-5.625139475E-1,9.246700257E-2,1.199551299E-1
1.888939824E1,-1.953947693E-1,3.667374253E-1,4.345414639E-1
1.890829548E1,4.979932308E-1,8.407548666E-1,7.595121861E-1
1.892719267E1,1.033706307E0,9.610918164E-1,8.340355754E-1
1.894608986E1,1.178477049E0,4.498126507E-1,5.218926072E-1
1.896498710E1,8.779402375E-1,-3.491755724E-1,4.421006888E-2
1.898388428E1,3.171060979E-1,-5.531985760E-1,-2.129566222E-1
1.900278132E1,-1.385859698E-1,-5.230379477E-2,-2.728196681E-1
1.902167871E1,-2.503710091E-1,4.999021292E-1,-2.758738995E-1
1.904057590E1,-4.085041210E-2,8.877901435E-1,-9.567394853E-2
1.905947314E1,2.712925375E-1,8.884009719E-1,1.840940863E-1
1.907837032E1,3.952945471E-1,6.947624087E-1,2.922140658E-1
1.909726751E1,2.835094929E-1,7.570688128E-1,2.170798481E-1
1.911616475E1,9.597937763E-2,8.670213223E-1,1.474432498E-1
1.913506194E1,7.215633243E-2,9.751412868E-1,1.651578248E-1
1.915395918E1,2.828986347E-1,1.154730439E0,2.677801549E-1
1.917285637E1,4.533250332E-1,1.367305279E0,3.575747013E-1
1.919175355E1,3.623087704E-1,1.458321452E0,3.801760674E-1
1.921065079E1,1.222458109E-1,1.105251789E0,3.135937154E-1
1.922954798E1,-2.863346599E-2,3.655157387E-1,1.266744435E-1
1.924844517E1,-3.168770298E-2,-1.304922402E-1,-4.924955964E-2
1.926734241E1,7.948649675E-2,-7.185091078E-2,-8.322793990E-3
1.928623960E1,2.914505005E-1,3.508553803E-1,2.250208557E-1
1.930513684E1,4.734829962E-1,8.041040897E-1,3.710133433E-1
1.932403402E1,4.246152043E-1,1.126020551E0,2.799971104E-1
1.934293121E1,1.668376625E-1,1.234140515E0,1.254527569E-1
1.936182845E1,-2.619007602E-2,1.098532438E0,9.857547283E-2
1.938072564E1,2.206685767E-2,7.662315369E-1,1.614927500E-1
1.939962288E1,1.723352820E-1,4.363740087E-1,2.421245873E-1
1.941852007E1,-9.086352773E-3,3.374167681E-1,4.644729793E-1
1.943741725E1,-2.656421959E-1,2.763320208E-1,5.994702578E-1
1.945631449E1,-3.346679509E-1,-6.513158977E-2,4.082750380E-1
1.947521168E1,-3.591018319E-1,-6.338303685E-1,4.176668078E-2
