"Time (s)","Gyroscope x (rad/s)","Gyroscope y (rad/s)","Gyroscope z (rad/s)"
1.623288900E-2,-1.449670494E-1,1.231504306E-1,1.813397110E-1
3.608601400E-2,0.000000000E0,0.000000000E0,0.000000000E0
5.593757600E-2,-2.942276001E-1,3.931005001E-1,-3.982317746E-1
7.579070100E-2,-4.349884093E-1,3.973940015E-1,-3.212627470E-1
9.564382600E-2,-4.409050643E-1,3.344399929E-1,-2.981720567E-1
1.154953890E-1,-3.003188074E-1,2.861467302E-1,-4.534365237E-1
1.353485140E-1,-1.163261905E-1,3.265161812E-1,-7.516784072E-1
1.552032010E-1,-4.283038154E-2,4.006927013E-1,-9.164200425E-1
1.750547640E-1,-3.228859045E-3,4.706978500E-1,-1.017963290E0
1.949125760E-1,-1.221730467E-2,5.333900452E-1,-1.027580023E0
2.147594510E-1,-1.949532703E-2,5.767964125E-1,-9.867393374E-1
2.346125760E-1,8.559094369E-2,6.439043283E-1,-1.044492245E0
2.544657010E-1,1.940980703E-1,7.243814468E-1,-1.095665336E0
2.743188260E-1,2.705958486E-1,7.958003283E-1,-1.098737121E0
2.941703890E-1,2.624277174E-1,8.205665350E-1,-9.965829849E-1
3.140219510E-1,1.763829738E-1,8.034971952E-1,-8.107926846E-1
3.338766390E-1,7.588691264E-2,7.588866353E-1,-5.903052688E-1
3.537282010E-1,-1.155582517E-1,6.416004896E-1,-2.593733668E-1
3.735813260E-1,-2.277829200E-1,5.457469821E-1,-3.499384969E-2
3.934328890E-1,-2.104517967E-1,5.425181389E-1,1.495747175E-2
4.132860140E-1,-2.593733668E-1,4.787787199E-1,1.499586850E-1
4.331391390E-1,-1.372474551E0,-3.813718855E-1,1.318351865E0
4.529907010E-1,-7.294010162E0,-4.830320835E0,6.674348354E0
4.728438260E-1,-7.962907791E0,-5.287387848E0,7.123456478E0
4.926969510E-1,-7.870370388E0,-5.185757160E0,6.923529148E0
5.125500760E-1,-7.434666157E0,-4.818382740E0,6.435482502E0
5.324016390E-1,-6.885760307E0,-4.374336243E0,5.864341259E0
5.522594510E-1,-6.267302990E0,-3.871367216E0,5.198358536E0
5.721063260E-1,-5.594356060E0,-3.307084799E0,4.457553387E0
5.919594510E-1,-5.303025723E0,-3.090873480E0,4.039599419E0
6.118172640E-1,-5.065713406E0,-2.927981853E0,3.739647150E0
6.316657010E-1,-4.752566338E0,-2.695346832E0,3.406463861E0
6.515172640E-1,-4.482825756E0,-2.499765158E0,3.103527069E0
6.713703890E-1,-4.542480946E0,-2.516886950E0,2.963010550E0
6.912235140E-1,-4.573251247E0,-2.515351057E0,2.806751251E0
7.110750760E-1,-4.458391190E0,-2.409880877E0,2.587188721E0
7.309282010E-1,-4.223487377E0,-2.218069077E0,2.320013762E0
7.507813260E-1,-3.849567890E0,-1.891971827E0,1.986289382E0
7.706328890E-1,-3.340682268E0,-1.454487562E0,1.630940318E0
7.904860140E-1,-2.859425306E0,-1.058995962E0,1.336259007E0
8.103391390E-1,-2.363350391E0,-6.406754851E-1,1.063010216E0
8.301922640E-1,-2.012713671E0,-3.751410544E-1,8.769406676E-1
8.500438260E-1,-1.696268082E0,-1.250179410E-1,7.131240964E-1
8.698969510E-1,-1.349977255E0,1.634675413E-1,5.464451313E-1
8.897500760E-1,-1.046656489E0,4.104665220E-1,3.956661522E-1
9.096032010E-1,-8.318937421E-1,5.494296551E-1,2.881363928E-1
9.294547640E-1,-7.191978097E-1,5.966756940E-1,2.063153684E-1
9.493078890E-1,-6.403787732E-1,6.141639352E-1,1.322959512E-1
9.691610140E-1,-5.254837275E-1,6.717073917E-1,5.176646635E-2
9.890125760E-1,-3.541273177E-1,7.879114151E-1,-4.207988828E-2
1.008865701E0,-1.269901544E-1,9.606117606E-1,-1.419127136E-1
1.028718826E0,1.318072677E-1,1.167695045E0,-2.395987958E-1
1.048571951E0,3.568674624E-1,1.344043136E0,-3.272666931E-1
1.068423514E0,5.171235800E-1,1.464435935E0,-3.979874253E-1
1.088276639E0,5.871985555E-1,1.495520234E0,-4.584805369E-1
1.108129764E0,5.162509084E-1,1.372666597E0,-5.107531548E-1
1.127981326E0,4.475373328E-1,1.238904476E0,-5.566552877E-1
1.147834451E0,3.840073347E-1,1.103100419E0,-6.021037102E-1
1.167687576E0,3.101973534E-1,9.523563385E-1,-6.443406343E-1
1.187539139E0,2.125636488E-1,7.466169596E-1,-6.626491547E-1
1.207392264E0,2.037846446E-1,6.311110258E-1,-6.378305554E-1
1.227245389E0,2.551845908E-1,5.914746523E-1,-5.825385451E-1
1.247096951E0,3.201806545E-1,5.950874686E-1,-5.342801809E-1
1.266950076E0,3.951425552E-1,6.443231702E-1,-5.002113581E-1
1.286803201E0,4.818679392E-1,7.120943069E-1,-4.350058734E-1
1.306654764E0,5.445252657E-1,7.660424709E-1,-3.651403189E-1
1.326507889E0,5.518382192E-1,7.602130771E-1,-3.021339476E-1
1.346361014E0,5.136504173E-1,7.027742863E-1,-2.686934471E-1
1.366214139E0,4.880464077E-1,6.913598180E-1,-2.570869923E-1
1.386065701E0,4.982914925E-1,7.075040936E-1,-2.536137998E-1
1.405917264E0,5.264959931E-1,7.022681236E-1,-2.436479628E-1
1.425771951E0,5.392194986E-1,6.713932753E-1,-2.327571064E-1
1.445625076E0,5.041558146E-1,5.764647722E-1,-2.787116170E-1
1.465475076E0,4.623900652E-1,5.178217292E-1,-2.999348342E-1
1.485328201E0,4.461236000E-1,4.938758314E-1,-3.129898906E-1
1.505181326E0,4.613777995E-1,5.010491014E-1,-3.177371919E-1
1.525034451E0,4.959876537E-1,5.049935579E-1,-3.185400367E-1
1.544887576E0,5.363397002E-1,5.179264545E-1,-3.192207217E-1
1.564739139E0,5.774945617E-1,5.438620448E-1,-3.145083189E-1
1.584592264E0,6.091198921E-1,5.654343367E-1,-3.101100922E-1
1.604443826E0,6.308667064E-1,5.809503198E-1,-3.127281070E-1
1.624296951E0,6.385112405E-1,5.664640665E-1,-3.193079829E-1
1.644150076E0,6.377258301E-1,5.369330645E-1,-3.307922482E-1
1.664001639E0,6.380574703E-1,5.022184849E-1,-3.426081240E-1
1.683854764E0,6.366088390E-1,4.651302397E-1,-3.510555327E-1
1.703709451E0,6.505365968E-1,4.487066865E-1,-3.484549820E-1
1.723561014E0,6.766292453E-1,4.597895443E-1,-3.356966376E-1
1.743414139E0,7.082371712E-1,5.275955796E-1,-3.275634050E-1
1.763265701E0,7.439640164E-1,6.048787832E-1,-3.307922482E-1
1.783118826E0,7.822565436E-1,6.872059107E-1,-3.319965303E-1
1.802970389E0,8.186815977E-1,7.654141188E-1,-3.252770007E-1
1.822823514E0,8.502022624E-1,8.375660777E-1,-3.293785453E-1
1.842676639E0,8.803614974E-1,8.826304674E-1,-3.512125909E-1
1.862528201E0,8.994903564E-1,7.862184644E-1,-3.822096586E-1
1.882381326E0,9.114109278E-1,4.781329334E-1,-4.222649634E-1
1.902234451E0,9.249721169E-1,1.118581519E-1,-3.609515429E-1
1.922087576E0,9.695304036E-1,-4.267330095E-2,-3.117332458E-1
1.941939139E0,1.042712092E0,-2.942625061E-2,-2.907544076E-1
1.961792264E0,1.126016617E0,-1.466076588E-3,-2.403667420E-1
1.981645389E0,1.197068930E0,7.356562465E-2,-2.034530342E-1
2.001496951E0,1.264002323E0,3.879866898E-1,-2.415535748E-1
2.021350076E0,1.321214199E0,6.033079624E-1,-2.771757245E-1
2.041203201E0,1.372020721E0,7.691665888E-1,-3.343876302E-1
2.061056326E0,1.399073362E0,9.519200325E-1,-4.139397442E-1
2.080907889E0,1.425078750E0,1.225727320E0,-6.435028911E-1
2.100761014E0,1.490039945E0,1.695674658E0,-9.853779674E-1
2.120614139E0,1.542207837E0,2.130558252E0,-1.153749943E0
2.140465701E0,1.542207837E0,2.130558252E0,-1.153749943E0
2.160318826E0,1.542207837E0,2.130558252E0,-1.153749943E0
2.180171951E0,1.542207837E0,2.130558252E0,-1.153749943E0
2.200025076E0,1.542207837E0,2.130558252E0,-1.153749943E0
2.219876639E0,1.542207837E0,2.130558252E0,-1.153749943E0
2.239729764E0,1.542207837E0,2.130558252E0,-1.153749943E0
2.259582889E0,4.525115013E0,6.925431728E0,-2.300256729E0
2.279434451E0,4.830355644E0,7.621538639E0,-2.461402893E0
2.299287576E0,4.499877453E0,7.354625225E0,-2.433530092E0
2.319140701E0,4.059321880E0,6.858306408E0,-2.353087902E0
2.338992264E0,3.613355160E0,6.289381027E0,-2.257024765E0
2.358845389E0,3.203220129E0,5.720752716E0,-2.146353483E0
2.378698514E0,2.835985422E0,5.174342632E0,-2.024285316E0
2.398551639E0,2.500096798E0,4.648475170E0,-1.903194308E0
2.418409451E0,2.196741104E0,4.165961266E0,-1.791894674E0
2.438256326E0,1.915621042E0,3.725335360E0,-1.694348216E0
2.458107889E0,1.641167998E0,3.330315113E0,-1.619578242E0
2.477961014E0,1.362683296E0,2.998301029E0,-1.563378692E0
2.497814139E0,1.118686199E0,2.685992002E0,-1.510844231E0
2.517667264E0,9.268571138E-1,2.369947672E0,-1.457960844E0
2.537518826E0,7.660075426E-1,2.066138268E0,-1.407782555E0
2.557371951E0,6.291388273E-1,1.792837143E0,-1.355422735E0
2.577225076E0,5.240350962E-1,1.561877728E0,-1.285609484E0
2.597076639E0,4.218809903E-1,1.370048523E0,-1.221521020E0
2.616929764E0,2.915397882E-1,1.287564278E0,-1.158671737E0
2.636782889E0,9.224065393E-2,1.349418759E0,-1.123800039E0
2.656636014E0,9.224065393E-2,1.349418759E0,-1.123800039E0
2.676487576E0,9.224065393E-2,1.349418759E0,-1.123800039E0
2.696340701E0,-9.857619554E-2,1.368948936E0,-1.189110279E0
2.716193826E0,-2.563190460E-1,1.347429037E0,-1.261070251E0
2.736045389E0,-3.800803423E-1,1.364760160E0,-1.310393214E0
2.755898514E0,-4.810301960E-1,1.374568939E0,-1.361409187E0
2.775751639E0,-4.856727719E-1,1.243791461E0,-1.357552052E0
2.795604764E0,-4.091226161E-1,1.019429326E0,-1.287703872E0
2.815456326E0,-3.635695279E-1,9.241169095E-1,-1.213632107E0
2.835309451E0,-3.356268108E-1,1.029901385E0,-1.095176697E0
2.855161014E0,-3.083473146E-1,1.154465437E0,-9.694431424E-1
2.875014139E0,-2.769663036E-1,1.203125238E0,-8.615119457E-1
2.894867264E0,-2.521128058E-1,1.285243034E0,-7.799876332E-1
2.914720389E0,-1.009498462E-1,9.509775639E-1,-6.545857191E-1
2.934571951E0,-7.780677825E-2,1.014943838E0,-5.862910151E-1
2.954425076E0,-5.661848187E-2,1.090202451E0,-5.225864649E-1
2.974276639E0,-5.661848187E-2,1.090202451E0,-5.225864649E-1
2.994129764E0,-3.001966327E-2,1.152004600E0,-4.676086009E-1
3.013982889E0,2.343977243E-2,1.112088919E0,-4.225791097E-1
3.033836014E0,9.450957924E-2,1.002604365E0,-3.881786764E-1
3.053687576E0,1.954943240E-1,7.841938734E-1,-3.596774638E-1
3.073540701E0,3.662573397E-1,3.374245167E-1,-3.276506662E-1
3.093393826E0,5.374217629E-1,-9.438740462E-2,-2.904227972E-1
3.113245389E0,7.099824548E-1,-4.986231029E-1,-2.271545976E-1
3.133098514E0,9.434376955E-1,-1.026236176E0,-1.225395650E-1
3.152950076E0,8.552637100E-1,-8.109846711E-1,-1.683544517E-1
3.172803201E0,6.831393242E-1,-2.143438905E-1,-2.334901392E-1
3.192656326E0,5.539674759E-1,3.023608327E-1,-3.077539206E-1
3.212509451E0,4.203974605E-1,8.832412958E-1,-3.957359493E-1
3.232361014E0,4.203974605E-1,8.832412958E-1,-3.957359493E-1
3.252220389E0,2.948559225E-1,1.495432973E0,-4.918512404E-1
3.272067264E0,1.474105120E-1,2.208504677E0,-6.101845503E-1
3.291918826E0,-7.775441557E-2,3.201509714E0,-7.650476098E-1
3.311771951E0,-2.682920098E-1,4.019598007E0,-8.762076497E-1
3.331625076E0,-4.219507873E-1,4.601071835E0,-9.357233644E-1
3.351476639E0,-5.129348040E-1,4.883762836E0,-9.554281235E-1
3.371329764E0,-4.993212521E-1,4.659243584E0,-8.996648788E-1
3.391189139E0,-4.502251446E-1,4.366133213E0,-8.475318551E-1
3.411036014E0,-3.905697763E-1,4.045935154E0,-7.928332686E-1
3.430887576E0,-3.451039493E-1,3.756629229E0,-7.497410774E-1
3.450740701E0,-3.172310293E-1,3.524378300E0,-7.150962949E-1
3.470593826E0,-3.036872745E-1,3.319808245E0,-6.762452722E-1
3.490445389E0,-3.046123087E-1,3.147998095E0,-6.398028135E-1
3.510298514E0,-3.104242682E-1,2.991791010E0,-6.069033146E-1
3.530151639E0,-3.219259679E-1,2.856231213E0,-5.840569735E-1
3.550003201E0,-3.332182467E-1,2.739154577E0,-5.756619573E-1
3.569856326E0,-3.349810541E-1,2.629740000E0,-5.786290169E-1
3.589709451E0,-3.227288425E-1,2.506973505E0,-5.793969631E-1
3.609562576E0,-2.987130880E-1,2.344326258E0,-5.538453460E-1
3.629414139E0,-2.718175650E-1,2.161939383E0,-5.104913712E-1
3.649267264E0,-2.525142431E-1,1.991403222E0,-4.704360366E-1
3.669120389E0,-2.318146378E-1,1.837377906E0,-4.394041002E-1
3.688971951E0,-1.757721156E-1,1.672095180E0,-4.065569937E-1
3.708825076E0,-1.828406900E-1,1.536360979E0,-3.593109250E-1
3.728678201E0,-2.679080367E-1,1.406875014E0,-2.699151635E-1
3.748531326E0,-4.713785350E-1,1.219583750E0,-5.632177368E-2
3.768382889E0,-6.475171447E-1,1.102018356E0,8.374089748E-2
3.788236014E0,-8.047887683E-1,1.067321181E0,1.318421662E-1
3.808093826E0,-7.504915595E-1,1.018277407E0,1.147553995E-1
3.827940701E0,-6.831043959E-1,9.793740511E-1,5.122541264E-2
3.847793826E0,-6.092944145E-1,9.237329364E-1,1.047197543E-2
3.867646951E0,-6.092944145E-1,9.237329364E-1,1.047197543E-2
3.887498514E0,-5.352925062E-1,8.550018668E-1,-2.042035107E-3
3.907350076E0,-4.719719291E-1,7.856075764E-1,-4.712388851E-3
3.927203201E0,-4.221951365E-1,7.123561502E-1,3.263765713E-3
3.947062576E0,-3.229033649E-1,5.988573432E-1,4.981169850E-2
3.966909451E0,-2.478891164E-1,5.189561844E-1,6.436774135E-2
3.986762576E0,-1.848129183E-1,4.587772489E-1,6.330309063E-2
4.006614139E0,-1.381253600E-1,3.991917074E-1,7.120943069E-2
4.026467264E0,-1.100430116E-1,3.458369970E-1,8.358381689E-2
4.046320389E0,-9.532988071E-2,3.000744581E-1,9.506808221E-2
4.066171951E0,-8.276351541E-2,2.602286041E-1,9.932668507E-2
4.086025076E0,-6.583382189E-2,2.357416153E-1,8.735372871E-2
4.105878201E0,-3.967133537E-2,2.152689099E-1,6.675884128E-2
4.125731326E0,-3.333578818E-3,1.952674389E-1,4.616395757E-2
4.145582889E0,4.293509945E-2,1.719498336E-1,3.214896470E-2
4.165436014E0,9.539970011E-2,1.528384835E-1,1.022762898E-2
4.185289139E0,1.483006328E-1,1.396437883E-1,-1.783726551E-2
4.205142264E0,1.941678822E-1,1.318596303E-1,-5.255186185E-2
4.224993826E0,2.276258469E-1,1.271472424E-1,-9.033824503E-2
4.244846951E0,2.451664060E-1,1.193456128E-1,-1.166229025E-1
4.264700076E0,2.569648325E-1,1.052957103E-1,-1.305680871E-1
4.284551639E0,2.689901292E-1,8.508480340E-2,-1.285958588E-1
4.304404764E0,2.848900855E-1,5.979498103E-2,-1.119977757E-1
4.324256326E0,2.855358720E-1,3.469714522E-2,-8.738863468E-2
4.344109451E0,2.604729235E-1,1.980948634E-2,-6.780604273E-2
4.363962576E0,2.464579493E-1,-1.605702913E-3,-2.644173801E-2
4.383815701E0,3.113842010E-1,-6.284930557E-2,1.031489596E-1
4.403667264E0,5.245412588E-1,-1.096764877E-1,1.556310058E-1
4.423520389E0,6.998246908E-1,-1.155582517E-1,9.717993438E-2
4.443371951E0,6.821968555E-1,-1.228711754E-1,8.293804526E-2
4.463225076E0,6.821968555E-1,-1.228711754E-1,8.293804526E-2
4.483078201E0,6.139020920E-1,-1.565909386E-1,8.196066320E-2
4.502931326E0,5.493947268E-1,-1.699950695E-1,8.030259609E-2
4.522782889E0,4.678529501E-1,-1.771334708E-1,5.583308265E-2
4.542636014E0,3.643898368E-1,-1.796990931E-1,-9.983283468E-3
4.562489139E0,2.945592105E-1,-1.864011586E-1,-4.022983834E-2
4.582340701E0,2.073625624E-1,-1.826312542E-1,-9.634217620E-2
4.602193826E0,1.634151787E-1,-1.816189587E-1,-1.357691586E-1
4.622046951E0,1.356993467E-1,-1.820901930E-1,-1.633279175E-1
4.641898514E0,1.201659217E-1,-1.864011586E-1,-1.730843037E-1
4.661751639E0,1.008625776E-1,-1.899616420E-1,-1.688257009E-1
4.681604764E0,7.972663641E-2,-1.967684180E-1,-1.468869150E-1
4.701457889E0,6.522295624E-2,-2.007303238E-1,-1.182984188E-1
4.721309451E0,5.900958180E-2,-2.012713701E-1,-9.375908971E-2
4.741162576E0,5.452408642E-2,-1.981821358E-1,-7.995353639E-2
4.761014139E0,4.581489414E-2,-1.922305673E-1,-4.740314186E-2
4.780867264E0,2.933898382E-2,-1.833817512E-1,4.817108624E-3
4.800720389E0,3.874630900E-3,-1.731541157E-1,6.426302344E-2
4.820573514E0,-2.782054804E-2,-1.584584415E-1,1.209513173E-1
4.840425076E0,-6.389650702E-2,-1.433264315E-1,1.687907875E-1
4.860278201E0,-1.232900545E-1,-1.306902468E-1,2.059663087E-1
4.880129764E0,-1.815840602E-1,-1.171115935E-1,2.361081392E-1
4.899984451E0,-2.248333097E-1,-1.040041670E-1,2.515892088E-1
4.919836014E0,-2.542944849E-1,-9.372418374E-2,2.531251013E-1
4.939689139E0,-2.930233181E-1,-8.777260780E-2,2.417280972E-1
4.959542264E0,-3.439345956E-1,-8.967501670E-2,2.198765725E-1
4.979393826E0,-4.066268206E-1,-9.765116870E-2,1.845336556E-1
4.999246951E0,-4.657236636E-1,-1.196248680E-1,1.278802752E-1
5.019100076E0,-5.109102130E-1,-1.541125774E-1,5.382595211E-2
5.038951639E0,-5.433908105E-1,-2.001543641E-1,-3.843215108E-2
5.058803201E0,-5.746845603E-1,-2.682047486E-1,-1.518087387E-1
5.078656326E0,-5.928534269E-1,-3.258355260E-1,-2.203303576E-1
5.098509451E0,-6.026447415E-1,-3.599567115E-1,-2.279923558E-1
5.118362576E0,-5.290616751E-1,-2.992541492E-1,-1.912182719E-1
5.138215701E0,-4.610461593E-1,-2.361605018E-1,-1.347568780E-1
5.158068826E0,-3.443360031E-1,-2.958333120E-2,1.566258520E-1
5.177920389E0,-2.398955077E-1,5.909684673E-2,2.230356187E-1
5.197773514E0,-2.150769234E-1,7.531096041E-2,2.012888193E-1
5.217626639E0,-1.860695481E-1,9.557422996E-2,1.825265288E-1
5.237478201E0,-1.704663038E-1,1.111949235E-1,1.676039696E-1
5.257329764E0,-1.598896086E-1,1.179144457E-1,1.505171955E-1
5.277182889E0,-1.454906464E-1,1.193979755E-1,1.391725540E-1
5.297036014E0,-1.252273768E-1,1.182984188E-1,1.295383424E-1
5.316887576E0,-1.014908925E-1,1.152266338E-1,1.196772233E-1
5.336742264E0,-8.492772281E-2,1.097288504E-1,1.098161191E-1
5.356595389E0,-7.757988572E-2,1.013338193E-1,9.971065819E-2
5.376446951E0,-7.035422325E-2,9.218829125E-2,8.981464058E-2
5.396300076E0,-6.813765317E-2,8.267624676E-2,8.108799905E-2
5.416153201E0,-6.792821735E-2,7.180284709E-2,7.286749780E-2
5.436004764E0,-7.206464559E-2,5.752605200E-2,6.524040550E-2
5.455856326E0,-8.597491682E-2,3.909537569E-2,5.843362212E-2
5.475709451E0,-9.623745829E-2,2.010619268E-2,5.054473504E-2
5.495562576E0,-9.477137774E-2,3.490658419E-4,3.377212211E-2
5.515415701E0,-7.742280513E-2,-4.597197101E-2,-5.759586394E-2
5.535268826E0,-4.872959107E-2,-8.222246170E-2,-1.330289990E-1
5.555120389E0,-1.781981252E-2,-9.450957924E-2,-1.535889804E-1
5.574973514E0,1.398008689E-2,-9.841911495E-2,-1.538856775E-1
5.594825076E0,7.468263805E-2,-9.018116444E-2,-1.400975734E-1
5.614678201E0,1.992991418E-1,-5.434955284E-2,-9.637708217E-2
5.634531326E0,3.715282381E-1,-2.460914198E-3,-3.563962504E-2
5.654384451E0,4.734729230E-1,2.734931000E-2,9.878563695E-3
5.674236014E0,5.225515962E-1,3.857177496E-2,3.741985932E-2
5.694089139E0,6.041108370E-1,6.031857803E-2,7.459536940E-2
5.713942264E0,7.026870251E-1,8.738863468E-2,1.218588874E-1
5.733793826E0,6.395061016E-1,6.194173545E-2,9.758135676E-2
5.753646951E0,4.732285738E-1,-7.696901914E-3,2.303834632E-2
5.773500076E0,3.582462668E-1,-6.958627701E-2,-4.021238536E-2
5.793351639E0,3.063052893E-1,-1.122421250E-1,-9.044296294E-2
5.813204764E0,2.498438805E-1,-2.118829638E-1,-2.708052993E-1
5.833057889E0,1.790184230E-1,-2.505943775E-1,-3.009645641E-1
5.852911014E0,1.478293836E-1,-2.495820820E-1,-2.712067068E-1
5.872762576E0,8.895943314E-2,-2.538406849E-1,-2.450791299E-1
5.892615701E0,4.375540465E-2,-2.509259880E-1,-2.157750577E-1
5.912468826E0,2.876302600E-2,-2.416059226E-1,-1.905375868E-1
5.932320389E0,2.672099136E-2,-2.345373482E-1,-1.729795784E-1
5.952173514E0,2.680825815E-2,-2.321113348E-1,-1.636769772E-1
5.972025076E0,3.157300502E-2,-2.330538183E-1,-1.633802652E-1
5.991878201E0,4.094542563E-2,-2.383770645E-1,-1.773079932E-1
6.011731326E0,4.742059484E-2,-2.495646328E-1,-2.044653147E-1
6.031589139E0,5.241223797E-2,-2.597049773E-1,-2.353576422E-1
6.051437576E0,6.757915020E-2,-2.589195967E-1,-2.588323355E-1
6.071289139E0,8.883725852E-2,-2.414837480E-1,-2.606649101E-1
6.091142264E0,1.079835221E-1,-2.068564296E-1,-2.338741124E-1
6.110995389E0,1.100953668E-1,-1.679006666E-1,-1.899616420E-1
6.130846951E0,9.272934496E-2,-1.337096691E-1,-1.458222568E-1
6.150698514E0,5.290092900E-2,-7.813838869E-2,-4.745550081E-2
6.170553201E0,3.839724232E-4,3.490658492E-5,9.368927032E-2
6.190404764E0,3.042108938E-2,7.442083955E-2,1.696809083E-1
6.210257889E0,5.417501926E-2,9.056513757E-2,1.529781073E-1
6.230111014E0,1.797689125E-3,7.087782025E-2,1.249830276E-1
6.249962576E0,-2.122145891E-1,-1.424188633E-2,1.000946313E-1
6.269815701E0,-3.732561171E-1,-9.779080003E-2,5.864306167E-2
6.289668826E0,-4.363323152E-1,-1.645147353E-1,-7.958701812E-3
6.309521951E0,-4.549724162E-1,-2.080432475E-1,-6.140068173E-2
6.329373514E0,-5.058662295E-1,-2.974390090E-1,-1.342158169E-1
6.349226639E0,-6.341304779E-1,-4.200309217E-1,-1.956863105E-1
6.369079764E0,-5.773898363E-1,-3.938684464E-1,-1.629090309E-1
6.388931326E0,-5.166698098E-1,-3.402519226E-1,-1.212131158E-1
6.408784451E0,-3.805515766E-1,-2.309594154E-1,-7.419394702E-2
6.428637576E0,-3.320139945E-1,-1.945169419E-1,-6.167993695E-2
6.448489139E0,-2.573488057E-1,-8.009316027E-2,4.790928960E-2
6.468340701E0,-1.488242298E-1,3.310889751E-2,1.421745270E-1
6.488193826E0,-1.000946313E-1,3.193952516E-2,1.392249167E-1
6.508046951E0,-3.577924892E-2,2.623229846E-2,1.228362694E-1
6.527900076E0,6.091198884E-3,-6.806783844E-3,9.779080003E-2
6.547753201E0,1.960004680E-2,-7.625343651E-2,6.049311161E-2
6.567606326E0,2.253220044E-2,-1.350535750E-1,5.038765445E-2
6.587457889E0,3.525565192E-2,-2.064026296E-1,4.099778458E-2
6.607311014E0,5.611233413E-2,-2.999348342E-1,1.802925020E-2
6.627164139E0,8.269369602E-2,-4.244815111E-1,-7.871435024E-3
6.647015701E0,1.143365204E-1,-5.851739645E-1,-2.172934823E-2
6.666868826E0,1.498888731E-1,-7.797433138E-1,-2.171189524E-2
6.686721951E0,1.951103508E-1,-1.035154819E0,-1.064650808E-2
6.706575076E0,2.609616220E-1,-1.405984879E0,9.023352526E-3
6.726426639E0,3.627841473E-1,-1.953355074E0,3.848451003E-2
6.746278201E0,5.317320228E-1,-2.781583548E0,8.759807795E-2
6.766131326E0,8.152258396E-1,-3.976994514E0,1.694191098E-1
6.785984451E0,1.284405231E0,-5.378144741E0,3.246486783E-1
6.805837576E0,1.689583421E0,-6.655743122E0,5.787860751E-1
6.825689139E0,1.810447454E0,-7.475193024E0,7.670372725E-1
6.845542264E0,1.852579713E0,-7.709486008E0,8.990191221E-1
6.865401639E0,1.930054903E0,-7.556245804E0,1.069642425E0
6.885248514E0,2.192325592E0,-7.139827728E0,1.289710999E0
6.905100076E0,2.216952085E0,-6.692691803E0,1.314424872E0
6.924953201E0,1.857658625E0,-6.305263519E0,1.233040214E0
6.944804764E0,1.440629721E0,-5.890625954E0,1.219060063E0
6.964657889E0,1.092000127E0,-5.276723862E0,1.129926205E0
6.984511014E0,9.672440290E-1,-4.738219738E0,1.023408651E0
7.004362576E0,8.966105580E-1,-4.267679214E0,8.646361232E-1
7.024215701E0,8.124682307E-1,-3.849969387E0,6.591933966E-1
7.044068826E0,6.995279789E-1,-3.442382574E0,5.325523019E-1
7.063920389E0,5.623974204E-1,-3.072128534E0,4.215319157E-1
7.083773514E0,4.329114556E-1,-2.739224434E0,3.265336454E-1
7.103626639E0,3.686659038E-1,-2.426601171E0,2.705783844E-1
7.123479764E0,3.248406649E-1,-2.155254841E0,2.265088260E-1
7.143331326E0,2.807536721E-1,-1.916895151E0,1.996482164E-1
7.163184451E0,2.444159091E-1,-1.708101392E0,1.786518991E-1
7.183037576E0,2.115688175E-1,-1.527337670E0,1.607971787E-1
7.202890701E0,1.784075499E-1,-1.366784811E0,1.467996389E-1
7.222742264E0,1.413716674E-1,-1.217978001E0,1.581791937E-1
7.242595389E0,9.983283281E-2,-1.078159690E0,1.960528344E-1
7.262448514E0,3.232349828E-2,-9.507157207E-1,2.567030191E-1
7.282306326E0,-3.785619140E-2,-8.353495002E-1,3.145083189E-1
7.302153201E0,-9.813986719E-2,-7.382044792E-1,3.494672775E-1
7.322006326E0,-1.360309571E-1,-6.610260010E-1,3.556108475E-1
7.341857889E0,-1.917593181E-1,-6.039537191E-1,3.553839326E-1
7.361711014E0,-2.380105555E-1,-5.645267367E-1,3.482455313E-1
7.381564139E0,-2.495122701E-1,-5.326395631E-1,3.297625184E-1
7.401417264E0,-2.687632442E-1,-5.128126144E-1,3.055547774E-1
7.421268826E0,-3.189240098E-1,-5.065818429E-1,2.724284530E-1
7.441121951E0,-4.337492287E-1,-5.160065889E-1,2.144660652E-1
7.460973514E0,-5.609313846E-1,-5.296725035E-1,1.552819461E-1
7.480826639E0,-5.783148408E-1,-5.193401575E-1,1.261698455E-1
7.500679764E0,-6.413735747E-1,-5.074719191E-1,1.224522963E-1
7.520532889E0,-8.932245970E-1,-4.873308241E-1,2.528458536E-1
7.540386014E0,-1.081789970E0,-4.469613731E-1,4.223696887E-1
7.560237576E0,-1.061561584E0,-4.197691381E-1,4.490557611E-1
7.580089139E0,-9.165073037E-1,-3.954218030E-1,4.034677744E-1
7.599943826E0,-6.198362112E-1,-4.183205068E-1,8.724901080E-2
7.619795389E0,-4.909262061E-1,-4.021238685E-1,2.670353744E-3
7.639648514E0,-4.166449904E-1,-3.783175647E-1,-5.148721393E-3
7.659501639E0,-3.674267232E-1,-3.559424579E-1,1.064650831E-3
7.679353201E0,-3.197792172E-1,-3.256435394E-1,4.136430100E-3
7.699204764E0,-2.594082952E-1,-2.912780046E-1,5.742133129E-3
7.719059451E0,-1.936442852E-1,-2.556034625E-1,1.834340952E-2
7.738911014E0,-1.689304113E-1,-2.250252962E-1,3.956661373E-2
7.758762576E0,-1.474628747E-1,-2.003812492E-1,4.447098821E-2
7.778615701E0,-1.246339604E-1,-1.766796857E-1,5.892231688E-2
7.798468826E0,-1.012989059E-1,-1.541300267E-1,8.356636763E-2
7.818321951E0,-8.285077661E-2,-1.349314004E-1,1.013861746E-1
7.838175076E0,-7.382743061E-2,-1.174257547E-1,9.484118968E-2
7.858028201E0,-7.063347101E-2,-9.915215522E-2,7.075564563E-2
7.877879764E0,-6.899286807E-2,-7.881906629E-2,3.591887653E-2
7.897731326E0,-6.099925563E-2,-5.740387738E-2,-2.705260413E-3
7.917586014E0,-2.960078418E-2,-4.122467712E-2,-6.913249195E-2
7.937439139E0,2.532472648E-2,-2.260201424E-2,-1.234645918E-1
7.957290701E0,6.548475474E-2,-2.914699726E-3,-1.439023912E-1
7.977142264E0,1.038470864E-1,1.452113967E-2,-1.595754474E-1
7.996995389E0,1.320865154E-1,3.377212211E-2,-1.583537161E-1
8.016848514E0,1.593311131E-1,5.119050667E-2,-1.481086463E-1
8.036701639E0,1.847780049E-1,6.668902934E-2,-1.364672929E-1
8.056554764E0,2.251649201E-1,8.620180935E-2,-1.202008277E-1
8.076406326E0,2.890788913E-1,1.196597740E-1,-6.902777404E-2
8.096259451E0,3.859272003E-1,1.588424146E-1,-1.029744279E-2
8.116112576E0,4.420744479E-1,1.861393601E-1,3.569198400E-2
8.135964139E0,5.613153577E-1,2.135235816E-1,5.927138031E-2
8.155817264E0,9.719564319E-1,2.515368462E-1,-6.129596382E-2
8.175668826E0,1.069555163E0,2.338566631E-1,-2.984862030E-1
8.195521951E0,9.552186728E-1,2.099281996E-1,-3.374419510E-1
8.215375076E0,8.157145381E-1,1.883559376E-1,-3.033731282E-1
8.235226639E0,6.754075289E-1,1.723338068E-1,-2.247111350E-1
8.255079764E0,6.008819342E-1,1.796641946E-1,-9.147270769E-2
8.274932889E0,4.945390522E-1,1.653699428E-1,-2.350958437E-2
8.294784451E0,4.315501153E-1,1.439722031E-1,-2.062979154E-2
8.314637576E0,3.397457898E-1,1.173210293E-1,-2.305579931E-2
8.334490701E0,1.912880838E-1,8.093091846E-2,-3.005456924E-2
8.354342264E0,7.286749780E-2,5.033529550E-2,-4.057890549E-2
8.374195389E0,5.370378122E-2,4.237659276E-2,-3.785619140E-2
8.394048514E0,4.206243530E-2,3.096214123E-2,-4.782202095E-2
8.413900076E0,3.881612420E-2,1.385791413E-2,-8.313003182E-2
8.433753201E0,5.162683874E-2,-7.801621687E-3,-1.386838555E-1
8.453606326E0,6.257005036E-2,-2.958333120E-2,-1.705186665E-1
8.473459451E0,7.286749780E-2,-4.923573881E-2,-1.663647890E-1
8.493311014E0,1.119454205E-1,-6.038839370E-2,-1.342856288E-1
8.513164139E0,1.594183743E-1,-6.771877408E-2,-8.833111078E-2
8.533017264E0,1.770461947E-1,-7.707373798E-2,-4.476769641E-2
8.552868826E0,1.318072677E-1,-8.408996463E-2,3.127630055E-2
8.572721951E0,4.689699784E-2,-9.245008975E-2,9.691813588E-2
8.592575076E0,-2.574360557E-2,-1.050339118E-1,1.324006766E-1
8.612428201E0,-4.248131439E-2,-1.160643920E-1,1.423490494E-1
8.632279764E0,-4.180063680E-2,-1.219636053E-1,1.466425657E-1
8.652132889E0,-3.640756756E-2,-1.295906901E-1,1.480562836E-1
8.671986014E0,-3.188716620E-2,-1.332384348E-1,1.541300267E-1
8.691839139E0,-6.557202339E-2,-1.344078034E-1,1.837308109E-1
8.711690701E0,-2.165779024E-1,-1.407957077E-1,2.509957850E-1
8.731543826E0,-3.272841275E-1,-1.676737815E-1,2.297202349E-1
8.751396951E0,-4.421093464E-1,-2.166302651E-1,1.491558403E-1
8.771248514E0,-5.720491409E-1,-2.726553380E-1,5.410520732E-2
8.791101639E0,-7.258126140E-1,-3.136007488E-1,9.738937020E-3
8.810954764E0,-7.740884423E-1,-3.091501594E-1,3.729768470E-2
8.830806326E0,-6.956533194E-1,-2.986956537E-1,5.393067375E-3
8.850659451E0,-5.034576654E-1,-2.650108039E-1,-3.225368261E-2
8.870512576E0,-4.331034422E-1,-2.403667420E-1,-3.232349828E-2
8.890364139E0,-3.249104917E-1,-2.141868025E-1,-4.731587693E-2
8.910217264E0,-2.092126161E-1,-1.751786917E-1,-3.028146178E-2
8.930070389E0,-1.602037698E-1,-1.468520015E-1,-5.899212789E-3
8.949923514E0,-6.475171447E-2,-1.002517119E-1,5.260422453E-2
8.969775076E0,1.387536712E-2,-6.602580845E-2,8.566076308E-2
8.989626639E0,4.874704406E-2,-5.356415361E-2,7.908086479E-2
9.009479764E0,4.679227620E-2,-5.031784251E-2,6.927211583E-2
9.029332889E0,4.677482322E-2,-4.811872914E-2,5.546656251E-2
9.049184451E0,5.052728206E-2,-4.693190381E-2,3.726277873E-2
9.069037576E0,5.115560070E-2,-4.632103816E-2,1.661553420E-2
9.088896951E0,4.860742018E-2,-4.632103816E-2,-5.532693584E-3
9.108743826E0,4.761258140E-2,-4.946263134E-2,-3.651228920E-2
9.128596951E0,5.420992523E-2,-5.604252219E-2,-8.094836771E-2
9.148448514E0,8.635888994E-2,-6.030112505E-2,-1.330638975E-1
9.168300076E0,2.786243558E-1,-4.954989627E-2,-2.463706732E-1
9.188153201E0,5.469163656E-1,-1.748819835E-2,-3.718074858E-1
9.208007889E0,7.176968455E-1,1.347394194E-2,-4.588994086E-1
9.227859451E0,7.367907166E-1,9.616764262E-3,-5.652423501E-1
9.247712576E0,5.014330745E-1,-3.799581900E-2,-5.840220451E-1
9.267565701E0,2.292664498E-1,-7.260569930E-2,-5.001590252E-1
9.287417264E0,-1.666789502E-2,-1.001469940E-1,-4.080056250E-1
9.307270389E0,-1.464854777E-1,-1.162389293E-1,-3.731688559E-1
9.327121951E0,-1.817236841E-1,-1.179318950E-1,-3.730292320E-1
9.346975076E0,-1.971698403E-1,-1.121723130E-1,-3.634124696E-1
9.366828201E0,-2.395115346E-1,-1.097637564E-1,-3.369358182E-1
9.386679764E0,-2.765823305E-1,-1.025380939E-1,-3.009645641E-1
9.406532889E0,-2.623578906E-1,-6.101670861E-2,-2.139599174E-1
9.426386014E0,-2.162113935E-1,-6.475171540E-3,-1.108807698E-1
9.446239139E0,-1.737998873E-1,3.735004738E-2,-2.740166895E-2
9.466090701E0,-1.463109553E-1,5.410520732E-2,-5.602506921E-3
9.485943826E0,-1.325403005E-1,7.298967242E-2,3.757693991E-2
9.505803201E0,-1.269901544E-1,9.173450619E-2,9.189158678E-2
9.525648514E0,-1.257684231E-1,1.056098714E-1,1.430122852E-1
9.545501639E0,-1.274090409E-1,1.125213802E-1,1.807288378E-1
9.565354764E0,-1.198692098E-1,1.218065247E-1,2.242224514E-1
9.585212576E0,-6.565928459E-2,1.549154222E-1,3.042283356E-1
9.605059451E0,8.089601249E-2,2.102947235E-1,3.934495747E-1
9.624912576E0,1.646892726E-1,2.399827689E-1,4.525115192E-1
9.644770389E0,1.635548025E-1,2.330538183E-1,4.499284327E-1
9.664617264E0,1.521054506E-1,2.200162113E-1,4.319340885E-1
9.684470389E0,1.790009737E-1,2.125636488E-1,4.045847654E-1
9.704323514E0,2.303311080E-1,1.973792911E-1,3.356617093E-1
9.724175076E0,2.647140920E-1,1.716880351E-1,2.360906899E-1
9.744028201E0,2.556907237E-1,1.566083878E-1,1.882162988E-1
9.763881326E0,2.060186714E-1,1.506219208E-1,1.883733869E-1
9.783732889E0,8.779006079E-3,1.730843037E-1,3.402868509E-1
9.803586014E0,-2.156179696E-1,1.873785406E-1,4.697902799E-1
9.823439139E0,-4.433310926E-1,1.850049049E-1,5.426577926E-1
9.843292264E0,-6.069033146E-1,1.979203373E-1,6.176196337E-1
9.863143826E0,-6.512870789E-1,2.468244582E-1,7.327241302E-1
9.882996951E0,-5.417676568E-1,2.807536721E-1,8.019089699E-1
9.902848514E0,-4.412716031E-1,2.633352876E-1,7.615395188E-1
9.922701639E0,-3.023957312E-1,2.441191971E-1,7.113787532E-1
9.942554764E0,-4.630358517E-2,2.444159091E-1,7.028790116E-1
9.962406326E0,5.972516537E-2,2.453758419E-1,6.949726343E-1
9.982259451E0,7.234390080E-2,2.350958437E-1,6.491228342E-1
1.000211101E1,9.622000158E-2,2.298074961E-1,6.212499738E-1
1.002196414E1,4.939281940E-2,2.150071114E-1,5.673367381E-1
1.004181883E1,-7.487462461E-2,1.774825305E-1,4.408352673E-1
1.006167039E1,-1.581268311E-1,1.516691148E-1,3.309667706E-1
1.008152351E1,-1.732239276E-1,1.454208344E-1,2.626720369E-1
1.010137508E1,-1.798212677E-1,1.259080470E-1,1.712691635E-1
1.012122820E1,-1.471487135E-1,7.468263805E-2,1.902408898E-2
1.014108133E1,-1.129228063E-2,3.324852139E-2,-8.827875555E-2
1.016093289E1,1.167974323E-1,2.017600648E-2,-1.187172979E-1
1.018078601E1,2.337694019E-1,1.361356769E-2,-1.295034289E-1
1.020063758E1,3.657686412E-1,3.543018363E-3,-1.526290476E-1
1.022049226E1,4.382870793E-1,-1.165879890E-2,-1.912880838E-1
1.024034383E1,4.921304882E-1,-7.260569837E-3,-1.680053920E-1
1.026019695E1,5.096535683E-1,-4.398229532E-3,-1.466774642E-1
1.028005476E1,3.675663471E-1,-3.104940802E-2,-2.013586313E-1
1.029990320E1,2.609965205E-1,-2.146754880E-3,-1.043183282E-1
1.031975476E1,1.858950108E-1,4.433136433E-3,-7.204718888E-2
1.033960633E1,-1.477421224E-1,5.599016324E-2,8.429940045E-2
1.035945945E1,-3.880390525E-1,9.431759268E-2,1.871516556E-1
1.037931258E1,-5.472828746E-1,1.040390730E-1,2.072229385E-1
1.039916570E1,-5.227959156E-1,8.883725852E-2,1.808684766E-1
1.041901883E1,-4.994957745E-1,7.599163800E-2,1.579522938E-1
1.043887039E1,-3.719122112E-1,-6.257005036E-2,-1.678483188E-1
1.045872195E1,-1.787042618E-1,-1.104967967E-1,-2.945941091E-1
1.047857508E1,-2.342231758E-2,-1.473581493E-1,-4.116533697E-1
1.049842820E1,9.164723754E-2,-1.682671905E-1,-4.918337762E-1
1.051828133E1,1.480039209E-1,-1.764702350E-1,-5.246634483E-1
1.053813445E1,1.413193047E-1,-1.722465456E-1,-5.059884191E-1
1.055798601E1,1.300968379E-1,-1.742362231E-1,-5.075417161E-1
1.057783914E1,1.141270772E-1,-1.879719645E-1,-5.319588780E-1
1.059769070E1,8.799950033E-2,-2.206445187E-1,-5.729741454E-1
1.061754383E1,8.058185130E-2,-2.693566680E-1,-6.190508008E-1
1.063739695E1,9.122835845E-2,-3.183131516E-1,-6.307619810E-1
1.065724851E1,2.613630593E-1,-3.163583875E-1,-5.660277009E-1
1.067710164E1,5.010142326E-1,-2.441541106E-1,-3.766595125E-1
1.069695476E1,5.918236971E-1,-1.982868612E-1,-2.038544565E-1
1.071680789E1,5.438620448E-1,-1.889667958E-1,-9.250245243E-2
1.073665945E1,4.252494574E-1,-1.567305624E-1,9.028588235E-2
1.075651258E1,2.696533799E-1,-1.290670931E-1,2.621135414E-1
1.077636570E1,1.427853853E-1,-1.243372560E-1,3.309144378E-1
1.079621883E1,6.646213681E-2,-1.382300705E-1,3.156951666E-1
1.081607039E1,-1.326450263E-3,-1.592089385E-1,2.651504278E-1
1.083592351E1,-1.548979729E-1,-2.135933936E-1,1.508313566E-1
1.085577664E1,-2.794795632E-1,-2.685712576E-1,3.200933710E-2
1.087562820E1,-4.443259239E-1,-3.350334167E-1,-1.053131670E-1
1.089548133E1,-4.874006510E-1,-3.656290174E-1,-1.945343912E-1
1.091533445E1,-4.569446445E-1,-3.394840062E-1,-1.738871485E-1
1.093518601E1,-4.435928762E-1,-3.544589281E-1,-2.468768209E-1
1.095503914E1,-3.847054839E-1,-3.274412155E-1,-2.247984111E-1
1.097489851E1,-3.075619340E-1,-2.997603118E-1,-2.023534775E-1
1.099474539E1,-9.093165398E-3,-2.257757932E-1,-1.755975783E-1
1.101459695E1,1.105142459E-1,-1.780934036E-1,-1.308647841E-1
1.103445008E1,1.329068244E-1,-1.590867639E-1,-1.172337681E-1
1.105430164E1,1.864535213E-1,-1.339365691E-1,-1.051211804E-1
1.107415476E1,2.113419175E-1,-1.085071191E-1,-8.498007804E-2
1.109400789E1,2.119004279E-1,-7.819075137E-2,-3.509857133E-2
1.111386101E1,1.844289452E-1,-3.167772666E-2,8.114035428E-2
1.113371258E1,1.461713314E-1,-4.223696887E-3,1.463807672E-1
1.115356570E1,1.187522039E-1,1.027998887E-2,1.684940904E-1
1.117341883E1,1.040914357E-1,1.494001877E-2,1.335351467E-1
1.119327195E1,9.480628371E-2,2.336995862E-2,8.143706620E-2
1.121312351E1,1.010022014E-1,4.192280769E-2,3.195697814E-2
1.123297664E1,1.404291838E-1,5.365142226E-2,-4.169591516E-2
1.125282976E1,1.982868612E-1,6.887069345E-2,-9.827949107E-2
1.127268133E1,2.605427504E-1,8.798204362E-2,-1.375319511E-1
1.129253445E1,3.258704245E-1,1.072853878E-1,-1.748819947E-1
1.131238758E1,3.847578466E-1,1.288052946E-1,-1.987406462E-1
1.133224070E1,4.891983271E-1,1.699950695E-1,-1.862266362E-1
1.135209226E1,7.688350081E-1,2.546784580E-1,-1.226268336E-1
1.137194539E1,9.096132517E-1,3.060260415E-1,-7.810348272E-2
1.139179851E1,7.806683183E-1,2.811725438E-1,-1.579872072E-1
1.141165008E1,6.120869517E-1,2.680825591E-1,-1.461189687E-1
1.143150320E1,6.120869517E-1,2.680825591E-1,-1.461189687E-1
1.145135633E1,5.322730541E-1,2.560223341E-1,-1.669232845E-1
1.147120789E1,4.205545485E-1,2.224945724E-1,-2.197369486E-1
1.149106101E1,1.813746095E-1,1.649161577E-1,-2.548355162E-1
1.151091414E1,-2.708750963E-2,1.122421250E-1,-2.776469886E-1
1.153076570E1,-7.251843065E-2,1.060462072E-1,-2.563539743E-1
1.155061883E1,-1.240754575E-1,9.691813588E-2,-2.364048511E-1
1.157047195E1,-1.248259470E-1,9.902998060E-2,-2.170840502E-1
1.159032976E1,-7.248352468E-2,1.130973324E-1,-1.949707270E-1
1.161017508E1,-3.166027367E-2,1.306902468E-1,-1.580395699E-1
1.163002976E1,-1.446877979E-2,1.429424584E-1,-1.157851443E-1
1.164988289E1,-4.468042869E-3,1.663822383E-1,-3.309144080E-2
1.166974070E1,-1.151917316E-2,1.785471886E-1,3.085742146E-2
1.168958758E1,-1.886700839E-2,1.912531853E-1,9.346237779E-2
1.170944070E1,-2.675589733E-2,1.942376941E-1,1.359611452E-1
1.172929851E1,-2.818706818E-2,1.907819360E-1,1.658760905E-1
1.174914539E1,-3.494149074E-2,1.826312542E-1,1.822647303E-1
1.176899851E1,-5.178391933E-2,1.718625724E-1,1.944820434E-1
1.178885008E1,-8.302531391E-2,1.569749117E-1,1.983741224E-1
1.180870164E1,-1.229409948E-1,1.392074674E-1,1.942900568E-1
1.182855633E1,-1.543918252E-1,1.238136590E-1,1.884606481E-1
1.184840789E1,-1.602386832E-1,1.148426607E-1,1.836609989E-1
1.186826101E1,-1.515818387E-1,1.097986624E-1,1.815665960E-1
1.188811414E1,-1.489114910E-1,1.049815565E-1,1.823694557E-1
1.190796726E1,-1.701172441E-1,1.009498462E-1,1.931555867E-1
1.192782039E1,-2.222676724E-1,1.035154760E-1,2.320415229E-1
1.194767195E1,-3.439520299E-1,1.218065247E-1,3.297101557E-1
1.196752508E1,-4.566130340E-1,1.281944364E-1,3.965562582E-1
1.198737664E1,-5.838300586E-1,1.042834222E-1,3.966435194E-1
1.200722976E1,-7.338585854E-1,3.787364438E-2,3.090105355E-1
1.202708133E1,-8.314573765E-1,-4.546582699E-2,1.846907437E-1
1.204693445E1,-8.150338531E-1,-6.281439960E-2,1.811477244E-1
1.206678758E1,-7.639480829E-1,-9.964084625E-2,1.104444340E-1
1.208664070E1,-6.660351157E-1,-9.978047013E-2,9.983283281E-2
1.210649226E1,-5.175250173E-1,-1.030616909E-1,6.379178166E-2
1.212634539E1,-3.044726849E-1,-7.145377994E-2,8.323474973E-2
1.214620320E1,-1.910088360E-1,-3.785619140E-2,1.297826767E-1
1.216605008E1,-1.165007278E-1,-1.443387289E-2,1.632231921E-1
1.218590320E1,-6.709045917E-2,4.433136433E-3,1.924400032E-1
1.220575633E1,-3.940953314E-2,1.195550524E-2,2.003288865E-1
1.222560789E1,-4.687954485E-2,1.357866172E-2,1.978156120E-1
1.224546101E1,-5.625196174E-2,6.614797749E-3,1.725083441E-1
1.226531414E1,-5.735151842E-2,-3.996803891E-3,1.339714676E-1
1.228517195E1,-5.113814771E-2,-1.659808122E-2,9.222319722E-2
1.230501883E1,-2.731440216E-2,-7.248352468E-2,-6.173229590E-2
1.232487195E1,1.366592757E-2,-1.181064323E-1,-1.886002719E-1
1.234472508E1,3.750712425E-2,-1.364847422E-1,-2.393719107E-1
1.236458289E1,5.167919770E-2,-1.487718672E-1,-2.743133903E-1
1.238442976E1,8.817403018E-2,-1.631708294E-1,-3.205820620E-1
1.240428289E1,1.867502332E-1,-1.688955128E-1,-3.660478890E-1
1.242413445E1,3.509159088E-1,-1.444609016E-1,-3.552268744E-1
1.244398758E1,5.207713246E-1,-1.086816490E-1,-3.119775951E-1
1.246384070E1,6.270967722E-1,-8.061675727E-2,-2.603507638E-1
1.248369226E1,7.327415943E-1,-9.386380762E-2,-3.399028778E-1
1.250354539E1,6.691069007E-1,-1.572018117E-1,-5.030213594E-1
1.252339695E1,4.479387403E-1,-2.011666447E-1,-4.971046746E-1
1.254325164E1,3.078237176E-1,-2.094569653E-1,-4.195073247E-1
1.256310320E1,2.686585188E-1,-2.060710192E-1,-3.732561171E-1
1.258295633E1,1.534842551E-1,-2.240653634E-1,-3.473728895E-1
1.260280945E1,5.848598480E-2,-2.760063708E-1,-4.377285838E-1
1.262266101E1,8.953538723E-3,-2.964267135E-1,-4.664043486E-1
1.264251414E1,-1.401499379E-2,-2.873510122E-1,-4.346742630E-1
1.266236726E1,-8.255407214E-3,-2.669481039E-1,-3.934146762E-1
1.268222039E1,2.118829638E-2,-2.419026345E-1,-3.554711938E-1
1.270207820E1,4.386012256E-2,-2.251474708E-1,-3.309318721E-1
1.272192508E1,7.557275891E-2,-1.855285019E-1,-2.396511585E-1
1.274177664E1,9.053023160E-2,-1.514073163E-1,-1.435882300E-1
1.276162976E1,9.217083454E-2,-1.471138000E-1,-1.158724055E-1
1.278148289E1,9.403833747E-2,-1.382998824E-1,-7.447320223E-2
1.280133601E1,1.053131670E-1,-1.266236305E-1,-5.427974090E-2
1.282118758E1,1.271995902E-1,-1.147379428E-1,-5.616469681E-2
1.284104695E1,1.511629671E-1,-9.672614932E-2,-5.804964900E-2
1.286089383E1,1.726479679E-1,-7.628834248E-2,-4.658283666E-2
1.288074539E1,1.808335632E-1,-5.639158934E-2,-2.399827726E-2
1.290059851E1,1.781632155E-1,-3.991568089E-2,7.888888009E-3
1.292045164E1,1.754230410E-1,-2.272418700E-2,4.129448906E-2
1.294030476E1,1.774127185E-1,1.047197497E-3,8.210028708E-2
1.296015633E1,1.612160653E-1,3.321361542E-2,1.798910797E-1
1.298000945E1,1.151393726E-1,4.598942399E-2,2.559525371E-1
1.299986258E1,5.007349700E-2,4.405210912E-2,2.745228410E-1
1.301971414E1,-1.591740362E-2,3.640756756E-2,2.687632442E-1
1.303956726E1,-8.614945412E-2,2.111848444E-2,2.597224414E-1
1.305942508E1,-1.790707856E-1,5.253441166E-3,2.553940415E-1
1.307927195E1,-2.986432910E-1,-1.089085452E-2,3.000220954E-1
1.309912508E1,-3.885451853E-1,-1.687733456E-2,3.612133265E-1
1.311897820E1,-5.666909814E-1,-2.607521974E-2,5.558175445E-1
1.313883133E1,-5.597620010E-1,-2.075196430E-2,7.677528858E-1
1.315868289E1,-4.900884628E-1,-1.195550524E-2,8.871159554E-1
1.317853601E1,-4.124212861E-1,-1.617920212E-2,7.882081270E-1
1.319838758E1,-3.612307906E-1,-2.028072625E-2,6.869266629E-1
1.321824070E1,-2.353925556E-1,3.136356547E-2,3.610737026E-1
1.323809383E1,-1.694016606E-1,5.031784251E-2,2.615724802E-1
1.325794539E1,-1.451415867E-1,7.026695460E-2,2.338915765E-1
1.327779851E1,-1.046150327E-1,7.414158434E-2,2.095442265E-1
1.329765008E1,-7.019714266E-2,7.873180509E-2,1.916196942E-1
1.331750320E1,-5.319763720E-2,8.377580345E-2,1.805543154E-1
1.333735633E1,-4.698426276E-2,1.171290427E-1,1.637293398E-1
1.335720945E1,-4.405210912E-2,1.777617782E-1,1.626995951E-1
1.337706101E1,-4.284783453E-2,2.022487521E-1,1.927890629E-1
1.339691414E1,-4.359832406E-2,1.692445725E-1,2.342406362E-1
1.341676726E1,-4.345869645E-2,1.917767823E-1,2.475051433E-1
1.343662039E1,-4.871213809E-2,1.299223155E-1,2.411521375E-1
1.345647195E1,-7.785914093E-2,1.814967841E-1,2.075720131E-1
1.347632508E1,-1.176526472E-1,3.053977191E-1,1.583188176E-1
1.349617820E1,-1.488242298E-1,4.408352673E-1,1.110727564E-1
1.351602976E1,-1.593136489E-1,5.622578263E-1,6.939429045E-2
1.353588289E1,-1.739046127E-1,9.460033774E-1,-7.155849785E-2
1.355573601E1,-1.776047051E-1,1.147868156E0,-1.689129621E-1
1.357558758E1,-1.687384248E-1,1.092645884E0,-1.848827302E-1
1.359544070E1,-1.604655683E-1,1.067582965E0,-2.091253549E-1
1.361529383E1,-1.463633180E-1,1.046272516E0,-2.258456051E-1
1.363514539E1,-1.277406514E-1,1.009550810E0,-2.295107991E-1
1.365499851E1,-5.087634921E-2,1.004838347E0,-2.268055379E-1
1.367485164E1,6.572909653E-2,9.951518178E-1,-2.038020939E-1
1.369470476E1,1.718625724E-1,9.226508737E-1,-1.459618807E-1
1.371455633E1,2.959205806E-1,8.419643044E-1,-7.965682447E-2
1.373440945E1,3.880739510E-1,8.310036063E-1,-5.712462589E-2
1.375426883E1,4.069235027E-1,8.442506790E-1,-6.642723083E-2
1.377411414E1,3.486120701E-1,9.049532413E-1,-1.461189687E-1
1.379396726E1,3.037571013E-1,9.172228575E-1,-2.193704396E-1
1.381382664E1,2.647838891E-1,7.977725267E-1,-2.165430039E-1
1.383367351E1,2.291442752E-1,6.627888083E-1,-2.157226950E-1
1.385352508E1,1.997354776E-1,5.316447616E-1,-2.131046951E-1
1.387337820E1,1.809557378E-1,4.098207653E-1,-2.011317462E-1
1.389323133E1,1.613382399E-1,2.965489030E-1,-1.810779124E-1
1.391308289E1,1.312662065E-1,1.997529268E-1,-1.714785993E-1
1.393293601E1,1.207942367E-1,1.496270746E-1,-1.823345423E-1
1.395279539E1,1.169545129E-1,1.400277615E-1,-2.180265337E-1
1.397264070E1,1.095194072E-1,1.344252527E-1,-2.597748041E-1
1.399249383E1,1.048419252E-1,1.113694608E-1,-2.829353213E-1
1.401234695E1,1.105491519E-1,5.750859901E-2,-2.708227336E-1
1.403219851E1,1.158025935E-1,-2.064724453E-2,-2.298424095E-1
1.405205164E1,1.488940418E-1,-9.087929130E-2,-1.755103022E-1
1.407190476E1,2.221629620E-1,-1.427155733E-1,-1.171639487E-1
1.409175789E1,2.912431061E-1,-1.770287454E-1,-6.703809649E-2
1.411160945E1,3.362551332E-1,-2.032261342E-1,-3.321361542E-2
1.413146258E1,3.544938266E-1,-2.480811030E-1,3.874630900E-3
1.415131570E1,3.470936418E-1,-3.103719056E-1,6.448991597E-2
1.417116726E1,3.120474219E-1,-4.160166681E-1,1.618967354E-1
1.419102039E1,2.662150562E-1,-5.203350186E-1,2.631956637E-1
1.421087351E1,2.191959023E-1,-5.815262794E-1,3.211580217E-1
1.423072508E1,1.807986498E-1,-6.092595458E-1,3.366042078E-1
1.425057820E1,1.507615447E-1,-6.313554049E-1,3.430619240E-1
1.427043133E1,1.225046590E-1,-6.470982432E-1,3.403741121E-1
1.429028445E1,-2.075196430E-2,-6.928607821E-1,3.343527317E-1
1.431013601E1,-2.252696455E-1,-7.132288218E-1,2.923949957E-1
1.432998914E1,-3.355046511E-1,-6.650577188E-1,1.958782971E-1
1.434984226E1,-3.861017227E-1,-6.133785248E-1,1.037598252E-1
1.436969383E1,-4.306949079E-1,-5.732359290E-1,3.031636961E-2
1.438954695E1,-4.138350189E-1,-5.648757815E-1,9.861109778E-3
1.440940008E1,-3.560297191E-1,-5.214869380E-1,-2.614503168E-2
1.442925164E1,-3.107558787E-1,-5.423610806E-1,4.223696887E-3
1.444910945E1,-2.549926043E-1,-5.292187333E-1,1.434660610E-2
1.446895789E1,-2.153736353E-1,-4.926017225E-1,2.001892589E-2
1.448880945E1,-1.631533802E-1,-4.902280867E-1,5.674065277E-2
1.450866258E1,-3.649483621E-2,-5.633224845E-1,1.858775616E-1
1.452851570E1,5.791002512E-2,-6.281090975E-1,2.862863541E-1
1.454836726E1,7.054620981E-2,-6.412514448E-1,3.217339814E-1
1.456822039E1,4.899139330E-2,-6.464524865E-1,3.413689435E-1
1.458807195E1,2.392846346E-2,-6.082298160E-1,3.217689097E-1
1.460792508E1,1.771509275E-2,-5.090078115E-1,2.509434521E-1
1.462777820E1,5.893976986E-2,-3.553664982E-1,1.368687153E-1
1.464763133E1,2.505245507E-1,9.155996889E-2,-1.928937882E-1
1.466748289E1,2.882062197E-1,2.581516504E-1,-3.114539981E-1
1.468733601E1,2.828131616E-1,3.818431199E-1,-4.140095413E-1
1.470718914E1,2.661277950E-1,3.813369870E-1,-4.407480061E-1
1.472704070E1,2.397558838E-1,3.833964765E-1,-4.746772051E-1
1.474689383E1,2.369458973E-1,3.489436805E-1,-4.692492187E-1
1.476674695E1,2.814866900E-1,3.034080267E-1,-4.384441674E-1
1.478659851E1,4.526511431E-1,2.469815463E-1,-3.916867971E-1
1.480645164E1,5.777388811E-1,1.472359747E-1,-3.196395934E-1
1.482630476E1,5.537056923E-1,3.242821619E-2,-2.579771280E-1
1.484615789E1,5.233369470E-1,-1.117010694E-2,-2.344849855E-1
1.486600945E1,5.001938939E-1,-3.167772666E-2,-2.239082903E-1
1.488586258E1,4.825311899E-1,-5.583308265E-2,-2.075894624E-1
1.490571570E1,4.754102230E-1,-1.010022014E-1,-1.760164499E-1
1.492556726E1,4.869294167E-1,-1.524719596E-1,-1.389107555E-1
1.494542039E1,5.081176758E-1,-1.925970763E-1,-1.105666086E-1
1.496527351E1,5.261469483E-1,-1.967335194E-1,-1.018748656E-1
1.498512508E1,5.397081375E-1,-1.813397110E-1,-9.384635091E-2
1.500497820E1,5.281715393E-1,-1.064301804E-1,-1.206197068E-1
1.502483133E1,4.894252419E-1,2.673844434E-2,-1.889493465E-1
1.504468445E1,4.361228645E-1,2.077116370E-1,-2.867226899E-1
1.506453601E1,3.875678182E-1,3.764675260E-1,-3.724532723E-1
1.508438914E1,3.598345220E-1,4.827406108E-1,-4.153360128E-1
1.510424226E1,3.395363390E-1,5.502150655E-1,-4.322831333E-1
1.512409383E1,3.112620115E-1,6.362074018E-1,-4.591263235E-1
1.514394695E1,2.694090307E-1,7.757115960E-1,-5.205793381E-1
1.516380008E1,1.960353851E-1,1.020738363E0,-6.412165165E-1
1.518365164E1,1.002691686E-1,1.349558353E0,-8.020486236E-1
1.520350476E1,6.422811653E-3,1.717979908E0,-9.672440290E-1
1.522335789E1,-8.452629298E-2,2.095477104E0,-1.113223314E0
1.524321101E1,-1.327846497E-1,2.186199427E0,-1.110134125E0
1.526306258E1,3.118903376E-2,1.416107774E0,-6.498035192E-1
1.528291570E1,4.654444158E-1,-7.384138703E-1,4.846081138E-1
1.530276883E1,6.056292653E-1,-1.758035302E0,9.979618192E-1
1.532262195E1,6.626840830E-1,-2.270376682E0,1.249568462E0
1.534247351E1,6.901381016E-1,-2.552613735E0,1.381742239E0
1.536232664E1,7.420442104E-1,-2.977810860E0,1.586015582E0
1.538217976E1,7.065441608E-1,-3.034254789E0,1.592909694E0
1.540203133E1,6.103590727E-1,-2.784219027E0,1.441275477E0
1.542188445E1,3.603930473E-1,-2.114152193E0,1.100395203E0
1.544173758E1,1.152615398E-1,-1.422199011E0,7.559893727E-1
1.546158758E1,4.876450077E-2,-1.111844540E0,5.965186357E-1
1.548144226E1,3.330088034E-2,-9.687973857E-1,5.294456482E-1
1.550129539E1,1.298524998E-2,-8.565203547E-1,4.827755094E-1
1.552114695E1,-1.902408898E-2,-7.117103338E-1,4.223871231E-1
1.554100008E1,-3.045599535E-2,-5.693089366E-1,3.584731817E-1
1.556085320E1,-1.881464943E-2,-4.911181927E-1,3.254515529E-1
1.558070633E1,2.597049996E-2,-5.968328118E-1,3.856479526E-1
1.560055789E1,1.000771821E-1,-9.044296145E-1,5.588893294E-1
1.562041101E1,1.724908948E-1,-1.254874229E0,7.604050636E-1
1.564026414E1,2.262993902E-1,-1.541404963E0,9.303302765E-1
1.566011570E1,2.525840402E-1,-1.675673127E0,1.017771244E0
1.567996726E1,2.589719594E-1,-1.672915578E0,1.025887132E0
1.569982195E1,2.455329150E-1,-1.548159361E0,9.662840962E-1
1.571967351E1,2.213252038E-1,-1.369385362E0,8.750382662E-1
1.573952664E1,2.003114372E-1,-1.180331230E0,7.787484527E-1
1.575937976E1,2.021265775E-1,-1.063935280E0,7.203671932E-1
1.577923133E1,2.252870947E-1,-1.074180365E0,7.426550388E-1
1.579908445E1,2.535439730E-1,-1.100046158E0,7.746294737E-1
1.581893758E1,2.892708778E-1,-1.196929336E0,8.497135639E-1
1.583878914E1,3.715282381E-1,-1.633244157E0,1.114584684E0
1.585864226E1,4.773824513E-1,-2.000217199E0,1.279204130E0
1.587849539E1,1.132997990E0,-6.052173615E0,3.310732603E0
1.589834695E1,3.508111835E-1,-3.759962916E-1,2.560397983E-1
1.591820008E1,1.256287992E-1,1.876351118E0,-9.196488857E-1
1.593805320E1,4.794419557E-2,2.711473703E0,-1.297163606E0
1.595790476E1,-1.774999797E-1,4.203154087E0,-2.036938906E0
1.597775789E1,-4.904724360E-1,4.375418186E0,-2.093539953E0
1.599761101E1,-6.705729365E-1,4.021919250E0,-1.887137294E0
1.601746258E1,-6.531720161E-1,3.470918894E0,-1.563081980E0
1.603731570E1,-6.379352808E-1,2.988701820E0,-1.257911205E0
1.605716883E1,-6.150016785E-1,2.753623486E0,-1.101564527E0
1.607702039E1,-6.034301519E-1,2.690075874E0,-1.055121303E0
1.609687351E1,-6.096783876E-1,2.607312441E0,-9.967051744E-1
1.611672664E1,-6.119473577E-1,2.491474867E0,-9.345016479E-1
1.613657820E1,-6.268175244E-1,2.556680441E0,-9.657604694E-1
1.615643133E1,-7.327764630E-1,2.869513273E0,-1.176997662E0
1.617629070E1,-8.377231359E-1,3.021915436E0,-1.252936959E0
1.619613758E1,-8.782671094E-1,2.979765654E0,-1.179894924E0
1.621598914E1,-9.197710752E-1,2.836352110E0,-1.048977733E0
1.623584226E1,-9.336987734E-1,2.753867865E0,-9.125803113E-1
1.625569539E1,-9.230173826E-1,2.841727734E0,-8.361523151E-1
1.627554695E1,-9.069254398E-1,3.134768486E0,-8.414756060E-1
1.629540008E1,-8.926835656E-1,3.625205994E0,-9.024224877E-1
1.631525320E1,-8.793841600E-1,4.267714024E0,-9.907361269E-1
1.633510633E1,-8.856498599E-1,5.011991978E0,-1.126557708E0
1.635495789E1,-8.951793909E-1,5.528749466E0,-1.232586384E0
1.637481101E1,-8.792095780E-1,5.915287495E0,-1.325560093E0
1.639466414E1,-8.004428744E-1,6.303850174E0,-1.448623300E0
1.641451570E1,-7.706850171E-1,6.231453896E0,-1.324757218E0
1.643436883E1,-7.907563448E-1,5.835543156E0,-1.127535105E0
1.645422664E1,-8.382816315E-1,5.211709976E0,-9.740856886E-1
1.647407351E1,-8.645313978E-1,4.601438522E0,-8.794364929E-1
1.649392664E1,-8.901004791E-1,4.088486195E0,-7.423932552E-1
1.651377976E1,-1.209024429E0,2.136684418E0,-3.161838353E-1
1.653363289E1,-1.032536745E0,3.050870419E0,-3.648436368E-1
1.655348445E1,-1.015851378E0,3.281061888E0,-2.076418251E-1
1.657333758E1,-9.627061486E-1,3.359304905E0,-1.592263877E-1
1.659319539E1,-7.926238179E-1,3.841417313E0,-1.363451183E-1
1.661304226E1,-5.497263670E-1,4.275515556E0,-1.452462971E-1
1.663289539E1,-4.144458771E-1,4.216471195E0,-1.391551048E-1
1.665274851E1,-3.645120263E-1,3.850021839E0,-1.377588362E-1
1.667260008E1,-3.430968225E-1,3.312425375E0,-1.692794859E-1
1.669245320E1,-3.281567991E-1,2.777464628E0,-1.989849806E-1
1.671230633E1,-2.981894910E-1,2.454491377E0,-1.852492392E-1
1.673215789E1,-2.685538232E-1,2.182481766E0,-1.704663038E-1
1.675201101E1,-2.464928478E-1,1.962326050E0,-1.495223492E-1
1.677186414E1,-2.347816974E-1,1.836278319E0,-9.037315100E-2
1.679171726E1,-1.995784044E-1,1.744247198E0,-3.300417587E-2
1.681156883E1,-1.192583442E-1,1.659284472E0,-5.183627829E-3
1.683142195E1,1.217192635E-1,1.700509191E0,-4.974188283E-2
1.685127508E1,3.797661960E-1,1.469881415E0,-1.628392190E-1
1.687112664E1,5.632352233E-1,1.049815536E0,-2.860769033E-1
1.689097976E1,7.540171146E-1,5.842838883E-1,-4.295778871E-1
1.691083289E1,7.347312570E-1,-1.852143407E-1,-5.348561406E-1
1.693068601E1,5.602506995E-1,-1.028889060E0,-5.038416386E-1
1.695053758E1,3.676885068E-1,-1.753497362E0,-3.237062097E-1
1.697039070E1,3.316998184E-1,-2.049295902E0,-1.493652761E-1
1.699024383E1,2.831971347E-1,-2.573976755E0,5.679301545E-2
1.701009539E1,1.826312542E-1,-4.022984028E0,3.287851214E-1
1.702994851E1,2.371378839E-1,-4.969301224E0,4.103268981E-1
1.704980164E1,3.169692457E-1,-5.205636501E0,4.367860854E-1
1.706965320E1,3.943571448E-1,-5.131006241E0,3.874456286E-1
1.708950476E1,4.611159861E-1,-4.874268055E0,3.196395934E-1
1.710935945E1,5.178042650E-1,-4.507836342E0,2.545213699E-1
1.712921101E1,5.604775548E-1,-4.105084419E0,1.763655245E-1
1.714906414E1,5.654692054E-1,-3.859272003E0,1.445656270E-1
1.716891726E1,5.527108908E-1,-3.653235912E0,1.373748630E-1
1.718876883E1,5.400572419E-1,-3.394089460E0,1.073202938E-1
1.720862195E1,5.247507095E-1,-3.103422403E0,7.131415606E-2
1.722847351E1,5.061454773E-1,-2.827415943E0,4.171336815E-2
1.724832664E1,4.894426763E-1,-2.542455912E0,2.738421597E-2
1.726817976E1,4.801226258E-1,-2.217615366E0,2.242748067E-2
1.728803133E1,4.782027602E-1,-1.880662084E0,2.012364566E-2
1.730788445E1,4.786739945E-1,-1.569853902E0,1.506219152E-2
1.732773758E1,4.781154990E-1,-1.261698484E0,1.080358773E-2
1.734759070E1,4.533841908E-1,-7.765144110E-1,-8.220500313E-3
1.736744226E1,3.958930373E-1,1.378984600E-1,-4.658283666E-2
1.738729539E1,2.384643406E-1,1.253286004E0,-2.014284432E-1
1.740714851E1,6.628760695E-2,1.981856227E0,-2.952398956E-1
1.742700008E1,-4.586725309E-2,2.099980116E0,-2.426705807E-1
1.744685320E1,-4.204498231E-2,1.283253312E0,9.267698042E-3
1.746670633E1,2.269277126E-1,-1.603556156E0,5.627988577E-1
1.748655945E1,3.823318183E-1,-3.701948166E0,7.992909551E-1
1.750641101E1,3.836582601E-1,-4.539165020E0,7.937932014E-1
1.752626414E1,3.320314288E-1,-5.370866776E0,7.932870388E-1
1.754611726E1,3.543891013E-1,-6.226741314E0,9.272410870E-1
1.756596883E1,4.608716369E-1,-6.999102116E0,1.127692103E0
1.758582195E1,5.775818229E-1,-6.948783875E0,1.175269842E0
1.760567351E1,5.163033009E-1,-6.192026615E0,1.047860742E0
1.762552664E1,4.668232203E-1,-5.538872242E0,9.431584477E-1
1.764537976E1,4.664392471E-1,-4.717171192E0,7.884699106E-1
1.766523289E1,4.749215543E-1,-4.013943195E0,6.472029686E-1
1.768508601E1,4.402069449E-1,-3.583300591E0,5.712637305E-1
1.770493758E1,3.932052255E-1,-3.155904293E0,5.139994621E-1
1.772479070E1,3.490309417E-1,-2.714353561E0,4.645368457E-1
1.774464383E1,3.051533699E-1,-2.239588976E0,4.124387503E-1
1.776449539E1,2.819579542E-1,-1.884711266E0,3.655941188E-1
1.778434851E1,2.871241271E-1,-1.805961967E0,3.597472608E-1
1.780420164E1,2.921157479E-1,-1.734944582E0,3.594331145E-1
1.782405320E1,2.728298604E-1,-1.354166031E0,3.105813265E-1
1.784390476E1,2.215346396E-1,-5.926265717E-1,2.000845522E-1
1.786375789E1,1.550550461E-1,1.432566196E-1,8.155923337E-2
1.788361101E1,8.543386310E-2,6.928259134E-1,-2.734931000E-2
1.790346258E1,1.064650808E-2,1.203631401E0,-1.766447723E-1
1.792331570E1,-2.061233856E-2,1.578283787E0,-3.059562147E-1
1.794316883E1,1.099557383E-3,1.855005741E0,-4.012686610E-1
1.796302195E1,7.346090674E-2,2.054217577E0,-4.539950490E-1
1.798287508E1,1.755452156E-1,2.103121758E0,-4.213922918E-1
1.800272820E1,2.242399007E-1,2.144922495E0,-3.833615780E-1
1.802257976E1,1.345299780E-1,1.950684667E0,-3.013485372E-1
1.804243289E1,-5.188863724E-2,1.634081960E0,-2.195624262E-1
1.806228601E1,-1.014385372E-1,1.526848912E0,-2.422342449E-1
1.808213758E1,-1.938537210E-1,1.557270050E0,-4.224569499E-1
1.810199070E1,-1.951627135E-1,1.437016845E0,-5.029864311E-1
1.812184226E1,-2.350609452E-1,1.200803995E0,-5.052204728E-1
1.814169539E1,-2.210110426E-1,9.667553306E-1,-4.422140718E-1
1.816154851E1,-2.310117781E-1,7.770555019E-1,-3.864333630E-1
1.818140008E1,-1.972396523E-1,6.628934741E-1,-3.420845270E-1
1.820125476E1,-1.620887220E-1,6.019815207E-1,-3.103195429E-1
1.822110633E1,-1.365196556E-1,5.580341220E-1,-2.821324766E-1
1.824095945E1,-1.231853366E-1,5.295852423E-1,-2.499136925E-1
1.826081101E1,-1.211258471E-1,5.297074318E-1,-2.265262902E-1
1.828066414E1,-1.042485163E-1,5.468814373E-1,-2.105565220E-1
1.830051570E1,-6.595598906E-2,5.539500713E-1,-1.936268210E-1
1.832036883E1,-1.148426626E-2,5.470908880E-1,-1.730668545E-1
1.834022195E1,3.740240633E-2,5.404935479E-1,-1.461713314E-1
1.836007351E1,7.611380517E-2,5.452408791E-1,-1.107760444E-1
1.837992664E1,9.358455241E-2,5.449790359E-1,-6.529276818E-2
1.839977976E1,8.023278415E-2,5.440365672E-1,-1.384046115E-2
1.841963289E1,5.415756628E-2,5.506339073E-1,2.960078418E-2
1.843948445E1,3.525565192E-2,5.944591165E-1,5.056218803E-2
1.845933758E1,1.930334233E-2,6.661747098E-1,5.637413636E-2
1.847919070E1,2.303834539E-3,7.169812322E-1,7.782422751E-2
1.849904226E1,-2.495820820E-2,7.376285195E-1,1.030267850E-1
1.851889539E1,-5.646140128E-2,7.900407314E-1,1.034805700E-1
1.853874851E1,-9.447467327E-2,8.412486911E-1,1.006182283E-1
1.855860008E1,-1.573239714E-1,7.578219771E-1,1.449146867E-1
1.857845320E1,-2.796191871E-1,4.427725673E-1,2.518684566E-1
1.859830633E1,-3.965387940E-1,2.079559863E-1,2.753605843E-1
1.861815945E1,-5.106309652E-1,3.741985932E-2,2.125112861E-1
1.863801101E1,-6.100798249E-1,-1.161691174E-1,1.183158681E-1
1.865786414E1,-5.805488825E-1,-1.256462485E-1,4.466297477E-2
1.867771726E1,-4.540823102E-1,1.564164013E-1,-7.998844236E-2
1.869756883E1,-3.980397880E-1,1.973094642E-1,-8.052948862E-2
1.871742195E1,-3.478615582E-1,3.212103844E-1,-8.604472876E-2
1.873727508E1,-2.237686664E-1,5.760633945E-1,-6.241297349E-2
1.875712820E1,-1.030965969E-1,7.350454330E-1,1.247910410E-2
1.877697976E1,-7.857472450E-2,8.542863131E-1,1.755801216E-2
1.879683289E1,-5.372123420E-2,9.457764626E-1,5.323254038E-3
1.881668601E1,-4.228932783E-2,8.525584340E-1,2.490584925E-2
1.883653758E1,-3.647737950E-2,7.024426460E-1,3.659955412E-2
1.885639070E1,-3.138101846E-2,5.900085568E-1,2.296853252E-2
1.887624383E1,-2.912954427E-2,5.185722113E-1,-2.764601447E-2
1.889609695E1,-2.520255372E-2,4.473453462E-1,-8.417722583E-2
1.891594851E1,-8.272860199E-3,3.334975243E-1,-1.389980167E-1
1.893580164E1,3.476695716E-2,7.436847687E-2,-1.718102098E-1
1.895565945E1,9.433504939E-2,-2.366491854E-1,-2.028072625E-1
1.897550633E1,1.543743759E-1,-4.621282816E-1,-2.519033849E-1
1.899535945E1,2.079559863E-1,-5.447521806E-1,-3.171437681E-1
1.901521258E1,2.755874991E-1,-4.935791194E-1,-3.986157477E-1
1.903506414E1,3.797138333E-1,-3.346145153E-1,-4.881162345E-1
1.905491726E1,5.448045135E-1,2.234021435E-3,-6.057688594E-1
1.907476883E1,6.048263907E-1,1.185078546E-1,-6.780080795E-1
1.909462195E1,5.339311361E-1,-2.130697966E-1,-5.982465148E-1
1.911447508E1,5.003335476E-1,-5.154131651E-1,-4.727224410E-1
1.913432820E1,5.036845803E-1,-7.293905616E-1,-3.603930473E-1
1.915417976E1,4.376936555E-1,-1.068333507E0,-2.189690024E-1
1.917403289E1,3.252072036E-1,-1.337725043E0,-1.389456540E-1
1.919388601E1,2.892534137E-1,-1.396647334E0,-1.213701963E-1
1.921373914E1,2.653074861E-1,-1.411971331E0,-9.197884798E-2
1.923359226E1,2.397209704E-1,-1.384779096E0,-7.237880677E-2
1.925344226E1,2.418153733E-1,-1.297163606E0,-6.366961449E-2
1.927329539E1,2.415535748E-1,-1.202392220E0,-6.082472578E-2
1.929315008E1,2.324429452E-1,-1.109243989E0,-5.583308265E-2
1.931300164E1,2.399827689E-1,-1.066780090E0,-1.836086437E-2
1.933285476E1,2.510481477E-1,-1.021488905E0,2.174680308E-2
1.935270633E1,2.537534237E-1,-9.780825377E-1,5.565854907E-2
1.937256570E1,2.503849268E-1,-9.433330297E-1,8.854055405E-2
1.939241101E1,2.442413718E-1,-8.868192434E-1,1.087340117E-1
1.941226414E1,2.232799679E-1,-8.102341890E-1,1.221730486E-1
1.943211726E1,1.925272644E-1,-7.198959589E-1,1.333256960E-1
1.945196883E1,1.618792862E-1,-6.274284124E-1,1.469916254E-1
1.947182195E1,1.391551048E-1,-5.458168387E-1,1.666789502E-1
1.949167508E1,1.209338605E-1,-4.984834790E-1,1.979028881E-1
1.951152820E1,1.021890268E-1,-4.619886577E-1,2.270149738E-1
1.953137976E1,7.906341553E-2,-4.108330607E-1,2.561270595E-1
1.955123289E1,5.389576778E-2,-3.417354524E-1,2.852566242E-1
1.957108601E1,2.062979154E-2,-2.409427017E-1,3.053453565E-1
1.959093758E1,-2.490584925E-2,-1.074773744E-1,3.094468713E-1
1.961079070E1,-7.173303515E-2,5.724680051E-2,2.953446209E-1
1.963064383E1,-1.169894189E-1,2.397907823E-1,2.738072574E-1
1.965049695E1,-1.591391265E-1,3.994884193E-1,2.556034625E-1
1.967034851E1,-2.056172341E-1,5.079780817E-1,2.464753985E-1
1.969020164E1,-3.039316237E-1,1.835039109E-1,3.650356233E-1
1.971005476E1,-3.913377225E-1,-5.354321003E-1,6.120520830E-1
1.972990789E1,-2.811725438E-1,-1.035713315E0,8.066737056E-1
1.974975945E1,-1.939933449E-1,-1.314773917E0,9.025970101E-1
1.976961258E1,-1.866978705E-1,-9.857270718E-1,7.888190150E-1
1.978946414E1,-1.783377379E-1,-2.361779511E-1,5.624498129E-1
1.980931726E1,-1.777443290E-1,1.446179748E-1,4.510279894E-1
1.982917039E1,-1.619490981E-1,4.145157039E-1,3.847403824E-1
1.984902351E1,-1.515294909E-1,6.900333762E-1,3.174579442E-1
1.986887508E1,-1.212131158E-1,9.189332724E-1,2.563190460E-1
1.988872820E1,-9.951867163E-2,1.056151032E0,2.083224952E-1
1.990858133E1,-8.794713765E-2,1.155495286E0,1.669232845E-1
1.992843289E1,-6.977826357E-2,1.077548862E0,1.600641459E-1
1.994828601E1,-5.050982907E-2,8.812865615E-1,1.933475733E-1
1.996813914E1,-3.122393973E-2,5.807059407E-1,2.626371384E-1
1.998799070E1,-1.886700839E-2,3.247185051E-1,3.284011483E-1
2.000784383E1,-1.183333248E-2,2.002416253E-1,3.547207117E-1
2.002769695E1,-8.918632753E-3,2.326872945E-1,3.218038082E-1
2.004754851E1,-6.789330859E-3,3.496592641E-1,2.477320284E-1
2.006740164E1,2.350958437E-2,5.134235024E-1,1.571494490E-1
2.008725476E1,1.019097716E-1,8.644964695E-1,-2.261946723E-2
2.010710789E1,1.587202400E-1,1.112891793E0,-1.880766749E-1
2.012695945E1,1.679355800E-1,1.036289215E0,-2.154259831E-1
2.014681258E1,1.754579544E-1,9.265080094E-1,-2.186199427E-1
2.016666570E1,1.916895062E-1,8.451931477E-1,-2.285857648E-1
2.018651726E1,2.204176337E-1,7.724652886E-1,-2.252172828E-1
2.020637039E1,2.670179307E-1,7.042752504E-1,-2.108183205E-1
2.022622195E1,3.298497796E-1,6.525960565E-1,-1.919164062E-1
2.024607508E1,3.963642716E-1,5.788210034E-1,-1.488242298E-1
2.026592820E1,4.380252659E-1,4.815014303E-1,-8.712683618E-2
2.028578133E1,4.547629952E-1,3.950901926E-1,-1.480039209E-2
2.030563445E1,4.976108074E-1,4.236786664E-1,-4.014257283E-4
2.032548601E1,5.475272536E-1,5.941275358E-1,-8.110544831E-2
2.034533914E1,4.847303033E-1,5.915967822E-1,-1.884082854E-1
2.036519226E1,3.062703907E-1,3.294832408E-1,-1.720545590E-1
2.038504383E1,2.764950693E-1,1.859997362E-1,-1.553517580E-1
2.040489695E1,2.799333632E-1,2.166477144E-1,-3.141767085E-1
2.042475008E1,3.468841910E-1,1.970651299E-1,-3.260275126E-1
2.044460320E1,3.328168392E-1,1.552121341E-1,-3.559249938E-1
2.046445476E1,2.915572524E-1,7.379251719E-2,-3.306002617E-1
2.048431258E1,2.462659627E-1,2.171189524E-2,-3.180339038E-1
2.050415945E1,1.787740737E-1,-2.450442314E-2,-3.042981625E-1
2.052401258E1,1.188394651E-1,-7.239625603E-2,-2.894454002E-1
2.054386414E1,7.501424849E-2,-1.265189201E-1,-2.860943675E-1
2.056371883E1,6.941174716E-2,-1.781806648E-1,-3.048566580E-1
2.058357039E1,1.001819000E-1,-2.439097613E-1,-3.200933933E-1
2.060342195E1,1.359436959E-1,-3.374419510E-1,-2.992017865E-1
2.062328133E1,1.554390192E-1,-4.517435730E-1,-2.457423508E-1
2.064312820E1,1.684068143E-1,-5.498484969E-1,-1.847605556E-1
2.066298133E1,1.830152273E-1,-6.360328794E-1,-1.234471351E-1
2.068283445E1,1.840449721E-1,-7.112390995E-1,-6.255260110E-2
2.070268601E1,1.655619293E-1,-8.043349981E-1,6.003932562E-3
2.072253914E1,1.344252527E-1,-9.009389281E-1,7.157595456E-2
2.074239070E1,9.745918214E-2,-9.900380373E-1,1.488416791E-1
2.076224383E1,4.984660447E-2,-1.104636312E0,2.375742197E-1
2.078209695E1,9.407324716E-3,-1.207436204E0,3.128502667E-1
2.080194851E1,-3.769911127E-3,-1.291316748E0,3.602534235E-1
2.082180164E1,-1.881464943E-2,-1.372544408E0,4.007624984E-1
2.084165476E1,-2.436479554E-2,-1.454871535E0,4.355469048E-1
2.086150789E1,-3.106686100E-2,-1.526238084E0,4.588819742E-1
2.088135945E1,-8.672541380E-2,-1.600868344E0,4.791626930E-1
2.090121258E1,-2.521477044E-1,-1.717002511E0,4.996702969E-1
2.092106570E1,-3.473554254E-1,-1.764161348E0,4.685336351E-1
2.094091726E1,-4.262792170E-1,-1.756080508E0,3.984586596E-1
2.096077039E1,-5.056567788E-1,-1.763201475E0,3.441091180E-1
2.098062351E1,-5.027421117E-1,-1.655008435E0,2.234545052E-1
2.100047664E1,-3.010518551E-1,-1.535854816E0,1.129577085E-1
2.102032820E1,-2.250776589E-1,-1.543953180E0,1.170417815E-1
2.104018601E1,-1.462411433E-1,-1.565455556E0,1.215098202E-1
2.106003445E1,-6.192428246E-2,-1.634361267E0,1.769240201E-1
2.107988601E1,2.069960535E-2,-1.715484142E0,2.478367537E-1
2.109973914E1,5.475097895E-2,-1.702743173E0,2.414488494E-1
2.111959226E1,9.440486133E-2,-1.692951918E0,2.430545539E-1
2.113944383E1,1.390329301E-1,-1.672165036E0,2.418502718E-1
2.115929695E1,1.691223979E-1,-1.625110984E0,2.267182618E-1
2.117915633E1,1.804670393E-1,-1.551074147E0,2.078512609E-1
2.119900164E1,1.622807086E-1,-1.429319978E0,1.868374944E-1
2.121885476E1,1.351757497E-1,-1.293882370E0,1.658935398E-1
2.123870789E1,1.184031367E-1,-1.174030662E0,1.450368613E-1
2.125856101E1,1.078613475E-1,-1.049396634E0,1.062032878E-1
2.127841258E1,9.026842564E-2,-8.761029243E-1,4.635594413E-2
2.129826570E1,7.108726352E-2,-6.851115227E-1,-8.744099177E-3
2.131811883E1,5.871287733E-2,-5.205095410E-1,-4.071853310E-2
2.133797039E1,5.407030135E-2,-3.802374303E-1,-6.119124219E-2
2.135782351E1,6.173229590E-2,-2.665292323E-1,-8.007570356E-2
2.137767664E1,1.000422761E-1,-1.926668882E-1,-1.017701477E-1
2.139753601E1,1.448448747E-1,-1.213527396E-1,-1.273566782E-1
2.141738133E1,1.828581393E-1,-3.136356547E-2,-1.617396623E-1
2.143723445E1,2.172236741E-1,7.751007378E-2,-1.991246194E-1
2.145708601E1,2.426880300E-1,1.953896135E-1,-2.330538183E-1
2.147693914E1,2.563539743E-1,3.110525906E-1,-2.574709654E-1
2.149679226E1,2.705260217E-1,4.234343171E-1,-2.865481675E-1
2.151664539E1,3.148922920E-1,5.556604862E-1,-3.589793146E-1
2.153649695E1,5.575628877E-1,7.467914820E-1,-5.486966372E-1
2.155635008E1,6.906268001E-1,8.540768623E-1,-6.213372350E-1
2.157620320E1,8.170584440E-1,8.855102658E-1,-6.169215441E-1
2.159605476E1,6.786189079E-1,8.662941456E-1,-5.422738194E-1
2.161590789E1,5.294456482E-1,7.430040836E-1,-3.528532088E-1
2.163576101E1,3.997851312E-1,7.474896312E-1,-3.176324666E-1
2.165561258E1,3.135309517E-1,7.854155898E-1,-3.225019276E-1
2.167546570E1,1.932079494E-1,9.427046776E-1,-4.896870255E-1
2.169531883E1,9.075712413E-2,1.032501817E0,-5.948780179E-1
2.171517195E1,3.417354822E-2,1.014490128E0,-5.667258501E-1
2.173502976E1,-5.398303270E-2,9.793915153E-1,-5.348736048E-1
2.175487664E1,-1.176875532E-1,9.298765063E-1,-4.931253195E-1
2.177472976E1,-1.473057866E-1,8.722457290E-1,-4.444306493E-1
2.179458289E1,-1.613731384E-1,8.092567921E-1,-3.682295680E-1
2.181443445E1,-1.663473248E-1,7.736870050E-1,-3.215769231E-1
2.183428758E1,-1.653699428E-1,7.335618734E-1,-2.754478753E-1
2.185413914E1,-1.488765776E-1,6.690021753E-1,-1.960179210E-1
2.187399695E1,-1.183856800E-1,5.707750320E-1,-8.094836771E-2
2.189384383E1,-8.464846760E-2,4.542393982E-1,4.642575979E-2
2.191369695E1,-5.907939374E-2,3.373023272E-1,1.582839042E-1
2.193355164E1,-4.865977913E-2,2.305230796E-1,2.451664060E-1
2.195340164E1,-5.831145123E-2,1.402546614E-1,3.042283356E-1
2.197325476E1,-8.230973035E-2,6.023131311E-2,3.452086747E-1
2.199310789E1,-1.129402518E-1,-1.015781611E-2,3.721216619E-1
2.201296101E1,-1.458222568E-1,-7.066838443E-2,3.888767958E-1
2.203281414E1,-1.808859259E-1,-1.181064323E-1,3.932052255E-1
2.205266570E1,-2.154783458E-1,-1.617745608E-1,3.928910792E-1
2.207251883E1,-2.463357747E-1,-2.008175850E-1,3.863111734E-1
2.209237664E1,-2.781531215E-1,-2.353751063E-1,3.722612858E-1
2.211222351E1,-3.272492290E-1,-2.565459311E-1,3.459766209E-1
2.213207664E1,-4.272740483E-1,-2.682745457E-1,3.116983473E-1
2.215192976E1,-5.961521268E-1,-3.161314726E-1,3.018895984E-1
2.217178133E1,-6.930004358E-1,-4.408352673E-1,3.412467837E-1
2.219163445E1,-7.309613228E-1,-6.384763718E-1,4.137826562E-1
2.221148758E1,-8.480904102E-1,-8.252265453E-1,4.822693765E-1
2.223133914E1,-7.918908000E-1,-9.691813588E-1,5.060582161E-1
2.225119226E1,-7.310311794E-1,-9.793042541E-1,4.538728595E-1
2.227104539E1,-5.935865045E-1,-1.029115915E0,4.143586159E-1
2.229089695E1,-4.863010943E-1,-1.080480933E0,3.704635799E-1
2.231075008E1,-3.704286814E-1,-1.143208146E0,3.302511871E-1
2.233060320E1,-3.061133027E-1,-1.228886366E0,3.236887753E-1
2.235045633E1,-2.550100684E-1,-1.238171458E0,2.989923656E-1
2.237030789E1,-1.822647303E-1,-1.232062817E0,2.793574035E-1
2.239016101E1,-1.131322384E-1,-1.176229715E0,2.581516504E-1
2.241001414E1,-6.890559942E-2,-1.086362720E0,2.347118706E-1
2.242986570E1,-4.822344705E-2,-9.979966879E-1,2.098933011E-1
2.244971883E1,-4.351105914E-2,-9.167690873E-1,1.857030392E-1
2.246957195E1,-5.136504024E-2,-7.880510688E-1,1.622632593E-1
2.248942351E1,-6.958627701E-2,-5.535486341E-1,1.222603172E-1
2.250927664E1,-9.311331809E-2,-2.437701374E-1,6.033603102E-2
2.252912976E1,-1.165007278E-1,5.721189082E-2,-1.398008689E-2
2.254898289E1,-1.318945289E-1,3.000395596E-1,-8.977973461E-2
2.256884070E1,-1.241976321E-1,4.806287587E-1,-1.663647890E-1
2.258868758E1,-8.377580345E-2,5.764822364E-1,-2.230530828E-1
2.260854070E1,-3.726277873E-2,6.188064814E-1,-2.507688999E-1
2.262839226E1,5.218534265E-3,6.440090537E-1,-2.700896859E-1
2.264824539E1,8.679522574E-2,6.655114889E-1,-3.038618267E-1
2.266809851E1,2.081479728E-1,7.113787532E-1,-3.643200397E-1
2.268795008E1,3.100402951E-1,7.478736043E-1,-4.109028578E-1
2.270780320E1,3.906046748E-1,7.499505281E-1,-4.243418872E-1
2.272765633E1,5.560793281E-1,7.859741449E-1,-4.762654305E-1
2.274750789E1,5.489758849E-1,8.928406239E-1,-5.810724497E-1
2.276736101E1,4.614475965E-1,8.200080395E-1,-5.199859142E-1
2.278721883E1,2.742261291E-1,6.919008493E-1,-4.000643790E-1
2.280706726E1,1.897871047E-1,6.601358652E-1,-3.758392036E-1
2.282691883E1,6.103416532E-2,7.880685329E-1,-5.489758849E-1
2.284677195E1,6.841690745E-3,8.889660239E-1,-7.071027160E-1
2.286662508E1,-1.282817032E-2,8.156970739E-1,-6.554060578E-1
2.288647664E1,-3.541272879E-2,7.303330302E-1,-5.871462226E-1
2.290632976E1,-6.667158008E-2,6.394363046E-1,-5.170188546E-1
2.292618289E1,-7.218682021E-2,5.438445807E-1,-4.200658500E-1
2.294603445E1,-1.480039209E-2,3.909886479E-1,-2.031388730E-1
2.296588758E1,3.211405873E-2,3.242298067E-1,-9.794788063E-2
2.298574539E1,4.035201296E-2,2.997428477E-1,-5.443681777E-2
2.300559226E1,4.043927789E-2,2.844188511E-1,-2.267182618E-2
2.302544539E1,3.434807807E-2,2.717477679E-1,-7.295476273E-3
2.304529851E1,3.015928902E-2,2.740516067E-1,-1.378810126E-2
2.306515008E1,3.457497060E-2,2.813296318E-1,-3.101450019E-2
2.308500320E1,5.338962004E-2,2.660579979E-1,-3.855432197E-2
2.310485633E1,7.777187228E-2,2.429672778E-1,-2.933898382E-2
2.312470945E1,9.611528367E-2,2.059139460E-1,2.879793290E-3
2.314456258E1,1.063778177E-1,1.566433012E-1,4.951499030E-2
2.316441414E1,1.157676876E-1,1.069886833E-1,9.653416276E-2
2.318426570E1,1.377239376E-1,3.152064607E-2,1.767320335E-1
2.320411883E1,2.110103071E-1,-9.330530465E-2,3.060260415E-1
2.322397351E1,3.191683590E-1,-2.278701812E-1,4.264013767E-1
2.324382351E1,2.854311466E-1,-2.585705221E-1,4.193153381E-1
2.326367664E1,2.228261828E-1,-2.734407187E-1,3.953694403E-1
2.328352976E1,9.354964644E-2,-2.450442314E-1,3.436378837E-1
2.330338289E1,-6.738716364E-2,-2.403143793E-1,3.152239025E-1
2.332323445E1,-1.948311031E-1,-3.755250275E-1,4.037295580E-1
2.334308758E1,-3.711966276E-1,-5.666560531E-1,5.409473181E-1
2.336294070E1,-6.273934841E-1,-6.782349348E-1,6.299242377E-1
2.338279226E1,-6.885324121E-1,-7.761828303E-1,6.959325671E-1
2.340265164E1,-7.084466219E-1,-7.245385051E-1,6.385636330E-1
2.342249851E1,-5.867971182E-1,-6.438170671E-1,5.486791730E-1
2.344235008E1,-4.730016887E-1,-5.736199021E-1,4.736300111E-1
2.346220320E1,-3.462035060E-1,-5.396208763E-1,4.203276336E-1
2.348206258E1,-2.415012121E-1,-5.793620348E-1,4.255985320E-1
2.350190945E1,-1.454906464E-1,-6.013706326E-1,4.388281405E-1
2.352176101E1,-2.853613347E-2,-6.235014200E-1,4.708898365E-1
2.354162039E1,1.879719645E-2,-5.550321341E-1,4.841368794E-1
2.356146726E1,3.281218931E-3,-3.596774638E-1,4.477467537E-1
2.358131883E1,-2.291617356E-2,-1.967684180E-1,4.144284427E-1
2.360117195E1,-4.038691893E-2,-7.728318125E-2,3.870965838E-1
2.362102508E1,-4.967207089E-2,5.300565064E-2,3.526961207E-1
2.364087664E1,-5.082398653E-2,1.860695481E-1,3.117681742E-1
2.366072976E1,-5.377359316E-2,3.354173601E-1,2.650631666E-1
2.368058289E1,-5.551892146E-2,4.744328558E-1,2.209935933E-1
2.370043445E1,-4.981169850E-2,5.866051316E-1,1.867851317E-1
2.372028758E1,-4.571017250E-2,7.894473076E-1,1.279326379E-1
2.374014070E1,-3.022910282E-2,1.005257249E0,4.302236438E-2
2.375999383E1,-7.906341925E-3,1.254752159E0,-6.171484292E-2
2.377984539E1,1.953023486E-2,1.482168555E0,-1.644623727E-1
2.379969851E1,4.757767543E-2,1.651849389E0,-2.466673851E-1
2.381955164E1,8.402015269E-2,1.746934891E0,-2.992716134E-1
2.383940320E1,1.322785020E-1,1.763306141E0,-3.139847219E-1
2.385925633E1,1.737998873E-1,1.719725251E0,-2.919586897E-1
2.387910945E1,3.118728697E-1,1.574583650E0,-1.667138487E-1
2.389896258E1,5.322730541E-1,1.310567737E0,7.087782025E-2
2.391881414E1,4.667184949E-1,1.240545154E0,1.344776154E-1
2.393866726E1,2.958682179E-1,1.152353644E0,1.662949771E-1
2.395852039E1,2.265611887E-1,1.207715511E0,9.672614932E-2
2.397837195E1,1.182111502E-1,1.471085668E0,-1.649510711E-1
2.399822508E1,1.478119344E-1,1.778926849E0,-4.786216319E-1
2.401807820E1,7.764969766E-2,1.709131122E0,-5.885424614E-1
2.403792976E1,1.692969352E-3,1.478328824E0,-5.859070420E-1
2.405778289E1,-1.230457146E-2,1.246653795E0,-5.324650407E-1
2.407763601E1,-4.312708601E-2,1.065628171E0,-5.084318519E-1
2.409749383E1,-6.344271451E-2,9.507506490E-1,-5.004208088E-1
2.411734070E1,-5.242969096E-2,8.477936983E-1,-4.438023269E-1
2.413719383E1,-4.216715321E-2,7.642621994E-1,-3.821398318E-1
2.415704539E1,-3.534291685E-2,6.868568659E-1,-3.376514018E-1
2.417690476E1,-2.391101047E-2,5.782799125E-1,-2.967059612E-1
2.419675008E1,-5.393067375E-3,4.339412153E-1,-2.511354387E-1
2.421660476E1,3.956661373E-2,2.767568529E-1,-2.066644430E-1
2.423646258E1,1.074250117E-1,1.630312055E-1,-1.728399545E-1
2.425630945E1,1.758419275E-1,8.845328540E-2,-1.518785506E-1
2.427616258E1,2.045002282E-1,2.090904489E-2,-1.307600737E-1
2.429601570E1,2.001194507E-1,-7.796385884E-2,-9.363691509E-2
2.431586726E1,1.878148764E-1,-1.798910797E-1,-4.789183289E-2
2.433571883E1,2.137155682E-1,-3.180513382E-1,4.141666368E-2
2.435557195E1,2.669306695E-1,-5.161985755E-1,1.546361744E-1
2.437542508E1,2.667561173E-1,-7.025997639E-1,2.209237814E-1
2.439527820E1,2.406983525E-1,-9.582206607E-1,2.823593616E-1
2.441513133E1,1.722814441E-1,-1.404815555E0,3.997327685E-1
2.443498445E1,7.330382941E-4,-1.992048979E0,5.488711596E-1
2.445483601E1,-1.557008177E-1,-2.224753618E0,5.455724597E-1
2.447468914E1,-2.983989418E-1,-2.127591372E0,4.101349115E-1
2.449454070E1,-4.318293631E-1,-1.788473725E0,1.888620704E-1
2.451439383E1,-5.467767715E-1,-1.382998943E0,-4.780456796E-2
2.453424539E1,-6.487214565E-1,-1.038331270E0,-2.586577833E-1
2.455409851E1,-6.327167749E-1,-9.305571914E-1,-3.421717882E-1
2.457395164E1,-6.026447415E-1,-8.458912969E-1,-3.934495747E-1
2.459380476E1,-5.122366548E-1,-8.593826890E-1,-3.700970709E-1
2.461365789E1,-4.093146026E-1,-9.362993240E-1,-3.102497160E-1
2.463351101E1,-2.371727973E-1,-1.181884646E0,-1.496794373E-1
2.465336258E1,-1.748819835E-2,-1.596784234E0,1.011069268E-1
2.467321570E1,1.069712266E-1,-1.728364587E0,2.128778100E-1
2.469306726E1,1.129402518E-1,-1.589872718E0,2.145184129E-1
2.471292039E1,1.310567707E-1,-1.506131887E0,2.368586361E-1
2.473277351E1,1.344078034E-1,-1.413402557E0,2.465975732E-1
2.475262664E1,9.567894787E-2,-1.197906733E0,1.983741224E-1
2.477247820E1,3.279473633E-2,-8.222594857E-1,9.363691509E-2
2.479233133E1,-3.038618155E-2,-3.346319795E-1,-4.569271952E-2
2.481218289E1,-8.134979755E-2,8.398524672E-2,-1.393121779E-1
2.483203601E1,-1.188045591E-1,3.616322279E-1,-1.706233919E-1
2.485188914E1,-1.496794373E-1,5.939704776E-1,-1.947089285E-1
2.487174695E1,-1.690176874E-1,7.563209534E-1,-2.223374993E-1
2.489159383E1,-1.548456103E-1,8.526456952E-1,-2.365793735E-1
2.491144695E1,2.590068616E-2,9.509426355E-1,-2.571568191E-1
2.493129851E1,2.377487570E-1,1.072941184E0,-2.871590257E-1
2.495115164E1,2.707005739E-1,1.152598023E0,-3.112096488E-1
2.497100476E1,2.691472173E-1,1.190017819E0,-3.200061023E-1
2.499085789E1,2.101725489E-1,1.238834739E0,-3.462733328E-1
2.501070945E1,5.246459693E-2,1.352839589E0,-4.574158788E-1
2.503056258E1,-4.410447180E-2,1.312330484E0,-4.555309415E-1
2.505041570E1,-6.735225767E-2,1.236321449E0,-4.177271128E-1
2.507026726E1,-9.674359858E-2,1.170627236E0,-4.120024145E-1
2.509012039E1,-1.637467891E-1,1.106259465E0,-4.252494574E-1
2.510997351E1,-2.097536623E-1,9.691813588E-1,-3.619987369E-1
2.512982508E1,-2.173807621E-1,8.837998509E-1,-3.151192069E-1
2.514967820E1,-2.275385708E-1,8.221373558E-1,-2.736676335E-1
2.516953133E1,-1.971873045E-1,7.289193273E-1,-1.617920250E-1
2.518938289E1,-1.354200989E-1,6.668030620E-1,-6.527531147E-2
2.520923601E1,-8.810421824E-2,6.557725668E-1,-2.394591644E-2
2.522908914E1,-7.440338284E-2,6.367833614E-1,3.036872949E-3
2.524894226E1,-6.672393531E-2,6.174625754E-1,2.221804112E-2
2.526879383E1,-6.297148019E-2,5.914222598E-1,4.649557173E-2
2.528864695E1,-6.448991597E-2,5.964837074E-1,5.138249323E-2
2.530850008E1,-5.743878707E-2,6.212150455E-1,6.757915020E-2
2.532835320E1,-3.897320107E-2,6.637487411E-1,8.662068844E-2
2.534820476E1,-1.623156108E-2,7.299141288E-1,1.004262418E-1
2.536805789E1,-3.281218931E-3,7.939677238E-1,1.111425683E-1
2.538790945E1,-8.796459064E-3,8.471653461E-1,1.274788529E-1
2.540776258E1,-2.323033288E-2,9.010960460E-1,1.423665136E-1
2.542761570E1,-4.487241432E-2,9.708219171E-1,1.571668983E-1
2.544746883E1,-8.052948862E-2,1.042781830E0,1.785820872E-1
2.546732039E1,-1.205324382E-1,1.126243472E0,1.886526346E-1
2.548717351E1,-1.709899008E-1,1.249167085E0,1.777443290E-1
2.550702664E1,-2.207492441E-1,1.386646628E0,1.563989520E-1
2.552687976E1,-2.756049335E-1,1.513287663E0,1.321214288E-1
2.554673133E1,-3.747570813E-1,1.479271293E0,1.290496439E-1
2.556658914E1,-4.823217392E-1,1.412285566E0,1.156455129E-1
2.558643758E1,-5.499183536E-1,1.400521994E0,9.672614932E-2
2.560628914E1,-6.169738770E-1,1.270791650E0,1.030093357E-1
2.562614226E1,-6.467841268E-1,1.120187163E0,1.400452256E-1
2.564599539E1,-5.769534707E-1,9.245532751E-1,2.674193382E-1
2.566584851E1,-4.640306830E-1,9.239249229E-1,3.652276099E-1
2.568570008E1,-4.338539541E-1,1.123416066E0,3.167248964E-1
2.570555320E1,-4.281641841E-1,1.379194021E0,2.143787891E-1
2.572540633E1,-3.910759389E-1,1.802610993E0,7.223917544E-2
2.574525789E1,-3.160442114E-1,2.102807522E0,-7.504915702E-4
2.576511570E1,-2.792526782E-1,2.043623447E0,-1.132718660E-2
2.578496414E1,-2.182534188E-1,2.050692081E0,-2.741912194E-2
2.580481570E1,-1.590867639E-1,2.015610933E0,-3.525565192E-2
2.582466883E1,-1.242150813E-1,1.917610645E0,-3.228859231E-2
2.584452195E1,-8.812167495E-2,1.690665483E0,-4.625122529E-3
2.586437351E1,-4.389503226E-2,1.329888582E0,4.303981736E-2
2.588422664E1,-1.727875904E-3,8.661196232E-1,8.649851382E-2
2.590407820E1,3.652974218E-2,4.412541389E-1,9.553932399E-2
2.592393289E1,7.387978584E-2,1.870643944E-1,5.647885427E-2
2.594378445E1,9.820967913E-2,2.644173801E-2,-1.134464052E-3
2.596363758E1,1.159422249E-1,-1.094670519E-1,-2.928662486E-2
2.598348914E1,1.359087825E-1,-2.324604094E-1,-4.527384043E-2
2.600334226E1,1.614080518E-1,-2.809980214E-1,-6.543239206E-2
2.602319383E1,1.839576960E-1,-3.473903239E-1,-6.845181435E-2
2.604304695E1,2.086890191E-1,-3.936764598E-1,-6.939429045E-2
2.606290008E1,2.383072525E-1,-4.173605740E-1,-7.583455741E-2
2.608275164E1,2.569473684E-1,-4.429296553E-1,-9.358455241E-2
2.610260476E1,2.461263239E-1,-4.988325536E-1,-1.218937933E-1
2.612245789E1,2.149721980E-1,-5.090427399E-1,-1.748296320E-1
2.614231101E1,1.738871485E-1,-4.515690506E-1,-2.525840402E-1
2.616216258E1,1.310218722E-1,-3.067939878E-1,-3.873932660E-1
2.618201570E1,1.180540696E-1,-3.206693530E-1,-3.904825151E-1
2.620186883E1,1.239358261E-1,-4.051083624E-1,-3.264289200E-1
2.622172039E1,1.336747706E-1,-5.273686647E-1,-2.398955077E-1
2.624157351E1,1.353851855E-1,-6.387206912E-1,-1.713040620E-1
2.626143289E1,1.316501796E-1,-7.146948576E-1,-1.366592795E-1
2.628127976E1,1.271472424E-1,-7.966032028E-1,-9.936159104E-2
2.630113133E1,1.335525960E-1,-8.802219033E-1,-6.037093699E-2
2.632098445E1,1.730668545E-1,-9.564055204E-1,8.412486874E-3
2.634083758E1,2.745926380E-1,-9.518851042E-1,1.135860309E-1
2.636068914E1,3.219957948E-1,-9.576447010E-1,1.660680771E-1
2.638054226E1,3.084869385E-1,-9.299812317E-1,1.814967841E-1
2.640039539E1,2.626022398E-1,-6.816208959E-1,1.376017630E-1
2.642024695E1,1.932603121E-1,-2.922030091E-1,5.665338784E-2
2.644010008E1,1.035503820E-1,1.667836607E-1,-2.099631168E-2
2.645995320E1,7.208209950E-3,6.378305554E-1,-8.843583614E-2
2.647980633E1,-1.046673954E-1,1.178236842E0,-1.741314977E-1
2.649965789E1,-2.192133516E-1,1.605528355E0,-2.418502718E-1
2.651951101E1,-3.190985322E-1,1.780741930E0,-2.559874356E-1
2.653936258E1,-3.743382096E-1,1.561406493E0,-1.783377379E-1
2.655921570E1,-3.944967687E-1,1.285609484E0,-6.941174716E-2
2.657906883E1,-4.217588007E-1,1.334147096E0,-3.570943698E-2
2.659892195E1,-4.678704143E-1,1.557479501E0,-4.584980011E-2
2.661877351E1,-5.191481709E-1,1.807986617E0,-5.913175642E-2
2.663862664E1,-5.531471968E-1,1.929636002E0,-6.167993695E-2
2.665847976E1,-5.762902498E-1,1.940980673E0,-5.560619012E-2
2.667833289E1,-5.739340782E-1,1.769833684E0,-3.632030264E-2
2.669818445E1,-5.478239655E-1,1.427784085E0,-2.321287990E-3
2.671803758E1,-5.155876875E-1,1.225570202E0,3.391174600E-2
2.673789070E1,-5.064072609E-1,1.472831011E0,6.211626902E-2
2.675774226E1,-5.162858367E-1,2.047934532E0,1.064127237E-1
2.677759539E1,-6.547079086E-1,4.091854572E0,1.485100687E-1
2.679744851E1,-1.202200294E0,1.558572006E1,-5.304404497E-1
2.681730008E1,-1.017614245E0,1.378117180E1,-4.143586159E-1
2.683715320E1,-9.039758444E-1,1.181687355E1,-3.035127521E-1
2.685700633E1,-8.423308134E-1,1.003353119E1,-2.251649201E-1
2.687685945E1,-7.940549850E-1,8.493557930E0,-1.679704934E-1
2.689671101E1,-7.453253865E-1,7.173599720E0,-1.215796322E-1
2.691656414E1,-6.787410975E-1,5.758137703E0,-7.663740963E-2
2.693641726E1,-5.953667164E-1,4.059653282E0,-4.473278672E-2
2.695626883E1,-4.852887988E-1,1.970127702E0,-4.436627030E-2
2.697612195E1,-3.627666831E-1,3.242298067E-1,-7.808603346E-2
2.699597508E1,-2.648537159E-1,-3.805341423E-1,-1.102699041E-1
2.701582664E1,-1.676039696E-1,-1.284213215E-1,-1.160120368E-1
2.703567976E1,-1.416509151E-1,1.966986060E-1,-9.393361956E-2
2.705553289E1,-1.136034802E-1,4.173780382E-1,-7.325147092E-2
2.707538601E1,-9.567894787E-2,5.199335814E-1,-6.703809649E-2
2.709523758E1,-8.684758097E-2,5.306673646E-1,-7.368779927E-2
2.711509070E1,-7.564257085E-2,5.979148746E-1,-8.297295123E-2
2.713494383E1,-5.181882530E-2,7.679972053E-1,-8.405505866E-2
2.715479539E1,-2.055997774E-2,9.722530842E-1,-8.300785720E-2
2.717464851E1,-1.677261479E-2,1.821774721E0,-5.886995420E-2
2.719450164E1,-1.925098151E-2,2.939815044E0,-5.080653355E-2
2.721435476E1,-2.150245570E-2,3.610440493E0,-7.152359188E-2
2.723420633E1,-3.426081315E-2,4.203363895E0,-9.557422996E-2
2.725405945E1,-5.579817668E-2,4.924655914E0,-1.210211292E-1
2.727391101E1,-7.888887823E-2,5.594897270E0,-1.555437446E-1
2.729376414E1,-1.109854877E-1,6.310359955E0,-2.188293785E-1
2.731361726E1,-1.496096253E-1,7.054690838E0,-2.994984984E-1
2.733347039E1,-1.908692122E-1,7.820540905E0,-3.868522346E-1
2.735332195E1,-2.376440316E-1,8.621211052E0,-5.017647147E-1
2.737317508E1,-3.275634050E-1,9.664952278E0,-6.720041037E-1
2.739302820E1,-4.440990388E-1,1.041802692E1,-8.334645033E-1
2.741287976E1,-4.896695614E-1,1.022830963E1,-8.952841163E-1
2.743273133E1,-4.641528726E-1,9.554613113E0,-9.044645429E-1
2.745258601E1,-4.257556200E-1,9.078958511E0,-9.720960259E-1
2.747243758E1,-3.487516940E-1,9.147968292E0,-1.195602894E0
2.749229070E1,-2.382025421E-1,1.000541401E1,-1.595510125E0
2.751214383E1,-5.319588780E-1,1.277879429E1,-2.405290604E0
2.753199539E1,1.159422249E-1,8.088588715E0,-1.320009947E0
2.755184851E1,3.579495847E-1,2.936115026E0,-3.090978041E-2
2.757170008E1,2.246762365E-1,2.769104481E0,-4.440117627E-2
2.759155320E1,1.893333197E-1,2.586630344E0,-6.293657422E-2
2.761140633E1,-3.960151970E-2,2.899934292E0,-3.124488294E-1
2.763125945E1,-3.030066192E-1,2.592913389E0,-3.508984447E-1
2.765111258E1,-4.996004999E-1,2.241002798E0,-3.599043489E-1
2.767096414E1,-4.274136722E-1,1.934732318E0,-3.308795094E-1
2.769081726E1,-3.490484059E-1,1.694470406E0,-3.133215010E-1
2.771066883E1,-2.869495749E-1,1.439355612E0,-2.630734742E-1
2.773052195E1,-2.420946211E-1,1.200350165E0,-2.003463507E-1
2.775037508E1,-1.882162988E-1,1.006374240E0,-1.494350880E-1
2.777022664E1,-1.387885809E-1,8.713905215E-1,-1.324181259E-1
2.779007976E1,-7.867944241E-2,8.125205636E-1,-1.652128696E-1
2.780993289E1,-1.986184716E-2,1.098091364E0,-4.162261188E-1
2.782978601E1,-2.967059845E-4,1.329033256E0,-6.336068511E-1
2.784964383E1,2.925171889E-2,1.217890739E0,-6.321058869E-1
2.786949070E1,8.408996463E-2,1.050775528E0,-5.913524628E-1
2.788934383E1,1.254018992E-1,9.465967417E-1,-5.958379507E-1
2.790919539E1,1.587900519E-1,8.362919688E-1,-5.893453360E-1
2.792904851E1,1.922654659E-1,6.500304341E-1,-5.273337960E-1
2.794890164E1,2.211681157E-1,3.754203320E-1,-4.088259339E-1
2.796875476E1,2.428451180E-1,-1.638515145E-1,-1.382300705E-1
2.798860633E1,2.182883322E-1,-4.345869720E-1,-4.483750835E-2
2.800845945E1,2.049365640E-1,-6.019465923E-1,-3.857177682E-3
2.802831258E1,2.095442265E-1,-7.577347159E-1,3.675663471E-2
2.804816414E1,2.153561711E-1,-9.361248016E-1,9.070476145E-2
2.806801726E1,1.691922098E-1,-1.140049100E0,1.540253013E-1
2.808787039E1,2.713987045E-2,-1.360484123E0,2.232974172E-1
2.810772195E1,-1.021192148E-1,-1.448413849E0,2.171538621E-1
2.812757508E1,-2.963743508E-1,-1.326432824E0,7.386233658E-2
2.814742820E1,-5.200557709E-1,-1.147658706E0,-1.124515608E-1
2.816727976E1,-5.250822902E-1,-1.026358366E0,-2.440144867E-1
2.818713289E1,-2.566855848E-1,-9.087405801E-1,-3.366914690E-1
2.820698601E1,-6.974335760E-2,-1.065680623E0,-2.718524933E-1
2.822683914E1,-4.729842301E-3,-1.193333983E0,-2.214822769E-1
2.824669070E1,6.049311161E-2,-1.288018107E0,-1.677610427E-1
2.826654383E1,4.513247013E-1,-1.799870729E0,1.674119830E-1
2.828639695E1,6.618812084E-1,-1.928152442E0,2.427578419E-1
2.830624851E1,6.666808724E-1,-1.876054406E0,2.149547487E-1
2.832610164E1,6.787585616E-1,-1.886124969E0,2.050238252E-1
2.834595476E1,7.133684158E-1,-1.906754732E0,1.893333197E-1
2.836580633E1,7.203148603E-1,-1.759309292E0,6.358234584E-2
2.838565945E1,6.638010740E-1,-1.570115685E0,-5.424483120E-2
2.840551101E1,6.175847650E-1,-1.529309869E0,-6.033603102E-2
2.842536570E1,5.649631023E-1,-1.455080986E0,-7.796385884E-2
2.844521726E1,4.795641303E-1,-1.403611183E0,-6.359979510E-2
2.846507039E1,3.352428377E-1,-1.343292713E0,-2.738421597E-2
2.848492351E1,1.941678822E-1,-1.313150764E0,3.541272879E-2
2.850477508E1,1.333780587E-1,-1.322907209E0,9.407324344E-2
2.852462820E1,1.125388294E-1,-1.321580768E0,1.293288916E-1
2.854448601E1,1.180017069E-1,-1.339592576E0,1.595929116E-1
2.856433289E1,1.524021477E-1,-1.377989769E0,1.854935884E-1
2.858418601E1,2.033483088E-1,-1.434067249E0,2.005906850E-1
2.860403914E1,2.737025321E-1,-1.500511885E0,1.975712776E-1
2.862389226E1,3.816685975E-1,-1.638776898E0,2.220407873E-1
2.864374383E1,4.132241607E-1,-1.770252585E0,3.038792610E-1
2.866359695E1,4.261570275E-1,-1.833852291E0,3.368659914E-1
2.868344851E1,4.413065016E-1,-1.895427585E0,3.756472170E-1
2.870330164E1,4.519180954E-1,-1.924277902E0,3.848800063E-1
2.872315476E1,4.619362950E-1,-1.946827531E0,3.811275363E-1
2.874300633E1,4.643797576E-1,-1.951138496E0,3.725405335E-1
2.876285945E1,4.584980011E-1,-1.961453319E0,3.872012794E-1
2.878271258E1,4.530525804E-1,-1.969918251E0,4.068362415E-1
2.880256414E1,4.539077878E-1,-1.986952662E0,4.086513817E-1
2.882241726E1,4.541870356E-1,-1.998820901E0,3.926118016E-1
2.884227039E1,4.361228645E-1,-1.998140216E0,3.902207017E-1
2.886212195E1,4.052479863E-1,-1.983845949E0,4.043404162E-1
2.888197664E1,3.805166781E-1,-1.981542110E0,4.215144515E-1
2.890182820E1,3.707079291E-1,-1.995522141E0,4.292462766E-1
2.892168133E1,3.485946059E-1,-1.985975266E0,4.336445034E-1
2.894153289E1,1.891413331E-1,-1.755609274E0,4.342029989E-1
2.896138601E1,-3.358013555E-2,-1.394064307E0,4.265933633E-1
2.898123914E1,-2.090555429E-1,-1.103868365E0,4.441863000E-1
2.900109070E1,-2.079210728E-1,-1.074302554E0,4.361228645E-1
2.902094383E1,-1.808335632E-1,-1.094932318E0,4.541172087E-1
2.904079695E1,-1.392947286E-1,-1.133992791E0,4.815188944E-1
2.906064851E1,-9.431759268E-2,-1.186544657E0,4.903677106E-1
2.908050164E1,-5.948081985E-2,-1.218658686E0,4.626518786E-1
2.910035476E1,-3.302162886E-2,-1.236635566E0,4.101174772E-1
2.912020789E1,-7.470009383E-3,-1.257614493E0,3.578797579E-1
2.914005945E1,2.146754973E-2,-1.286220431E0,3.165329099E-1
2.915991258E1,4.818854108E-2,-1.305680752E0,2.849948108E-1
2.917976570E1,6.574655324E-2,-1.314965963E0,2.332458049E-1
2.919961726E1,7.133160532E-2,-1.315262675E0,1.606051922E-1
2.921947039E1,6.831218302E-2,-1.289082766E0,1.026253626E-1
2.923932351E1,7.667231560E-2,-1.279134393E0,8.379326016E-2
2.925917508E1,5.787511915E-2,-1.221486092E0,7.290240377E-2
2.927902820E1,2.766346931E-2,-1.161254764E0,6.031857803E-2
2.929888133E1,1.333431527E-2,-1.146279931E0,5.866051465E-2
2.931873445E1,2.532472648E-2,-1.187487125E0,6.352998316E-2
2.933858601E1,4.068362340E-2,-1.207610726E0,5.904448777E-2
2.935843914E1,4.864232615E-2,-1.186893702E0,5.415756628E-2
2.937829226E1,5.595525727E-2,-1.153435707E0,4.539601505E-2
2.939814383E1,6.286676228E-2,-1.115544677E0,3.673918173E-2
2.941799695E1,6.647959352E-2,-1.070480227E0,3.122393973E-2
2.943785008E1,7.004006207E-2,-1.037074685E0,1.684242673E-2
2.945770320E1,7.559020817E-2,-1.020668507E0,-5.515240598E-3
2.947755476E1,8.038986474E-2,-1.003145456E0,-2.672099136E-2
2.949740789E1,8.689994365E-2,-9.998642206E-1,-5.244714394E-2
2.951725945E1,9.526006877E-2,-9.986948371E-1,-9.283406287E-2
2.953711258E1,9.817477316E-2,-9.563007951E-1,-1.281595230E-1
2.955696570E1,9.313076735E-2,-8.653866053E-1,-1.604306698E-1
2.957681726E1,8.119271696E-2,-7.275230289E-1,-1.844289452E-1
2.959667039E1,7.468263805E-2,-6.172531247E-1,-2.106263340E-1
2.961652351E1,7.677703351E-2,-5.472654104E-1,-2.346944213E-1
2.963637664E1,6.326818466E-2,-3.888767958E-1,-2.564761341E-1
2.965622820E1,9.878563695E-3,-7.822565734E-2,-2.830575109E-1
2.967608133E1,-4.321435094E-2,2.804918587E-1,-2.877349854E-1
2.969593289E1,-2.892010473E-2,4.842590392E-1,-2.765299678E-1
2.971578758E1,2.834414691E-2,5.827654600E-1,-2.597748041E-1
2.973563914E1,5.991715193E-2,7.207337022E-1,-2.428102046E-1
2.975549226E1,1.254891697E-2,1.019464254E0,-2.339962870E-1
2.977534539E1,-7.436847687E-2,1.356679320E0,-2.303485572E-1
2.979519695E1,-1.335351467E-1,1.526552200E0,-2.280447185E-1
2.981504851E1,-1.587376893E-1,1.568527341E0,-2.375916690E-1
2.983490164E1,-1.766447723E-1,1.630120039E0,-2.520080805E-1
2.985475476E1,-1.891762316E-1,1.719969630E0,-2.697057426E-1
2.987460789E1,-1.986533701E-1,1.765749574E0,-2.925346494E-1
2.989445945E1,-2.078861594E-1,1.755138040E0,-3.231477141E-1
2.991431258E1,-2.327396572E-1,1.769519567E0,-3.545112908E-1
2.993416570E1,-2.792526782E-1,1.854551911E0,-3.894876838E-1
2.995401726E1,-3.137229383E-1,1.890889764E0,-4.417952001E-1
2.997387039E1,-2.990272641E-1,1.800359488E0,-4.734030962E-1
2.999372351E1,-2.610663474E-1,1.682113409E0,-4.734380245E-1
3.001357664E1,-2.398605943E-1,1.609978914E0,-4.647288322E-1
3.003342820E1,-2.364571989E-1,1.580954194E0,-4.488288760E-1
3.005328133E1,-2.191086262E-1,1.509674907E0,-4.217937291E-1
3.007313289E1,-1.822123677E-1,1.406264186E0,-3.875329196E-1
3.009298601E1,-1.384569705E-1,1.325088859E0,-3.584208190E-1
3.011283914E1,-1.145983189E-1,1.276795626E0,-3.357315361E-1
3.013269226E1,-1.120675877E-1,1.248870373E0,-3.190810978E-1
3.015254383E1,-1.222254038E-1,1.200088382E0,-3.048741221E-1
3.017239695E1,-1.464505792E-1,1.170993805E0,-2.962347269E-1
3.019224851E1,-1.637293398E-1,1.135668278E0,-2.821324766E-1
3.021210164E1,-1.725607067E-1,1.085402846E0,-2.604729235E-1
3.023195476E1,-1.707630157E-1,1.022361517E0,-2.327920198E-1
3.025180789E1,-1.619490981E-1,9.478359818E-1,-2.080432475E-1
3.027165945E1,-1.513375044E-1,8.747240901E-1,-1.882686615E-1
3.029151258E1,-1.439023912E-1,8.173726201E-1,-1.686162651E-1
3.031136570E1,-1.382475346E-1,7.748214602E-1,-1.307077110E-1
3.033121726E1,-1.350884885E-1,7.428994179E-1,-7.468263805E-2
3.035107039E1,-1.380031854E-1,7.191454768E-1,-2.141519077E-2
3.037092351E1,-1.386489570E-1,7.012558579E-1,1.315978263E-2
3.039077664E1,-1.284387857E-1,6.437996030E-1,4.818854108E-2
3.041062820E1,-9.911724925E-2,5.355717540E-1,1.055051535E-1
3.043048133E1,-7.751007378E-2,4.468217492E-1,1.468694508E-1
3.045033445E1,-7.115707546E-2,3.896971047E-1,1.641307622E-1
3.047018758E1,-6.899286807E-2,3.541796505E-1,1.578126699E-1
3.049003914E1,-5.160938576E-2,2.914874256E-1,1.348615885E-1
3.050989226E1,-2.158972248E-2,1.942376941E-1,1.248084977E-1
3.052974539E1,7.609635592E-3,8.733627200E-2,1.291369051E-1
3.054959695E1,4.052654654E-2,-6.352998316E-3,1.392074674E-1
3.056945008E1,8.100073040E-2,-1.107062325E-1,1.474279612E-1
3.058930320E1,1.247037724E-1,-2.376265824E-1,1.616000384E-1
3.060915476E1,1.530479193E-1,-3.437076807E-1,1.818807572E-1
3.062900789E1,1.514422148E-1,-3.669380248E-1,1.871691048E-1
3.064886101E1,1.499761492E-1,-3.882834017E-1,1.929287016E-1
3.066871258E1,1.597325355E-1,-4.416381121E-1,1.992293298E-1
3.068856570E1,1.911659092E-1,-5.556430221E-1,1.971349418E-1
3.070841883E1,2.635970712E-1,-8.128172755E-1,2.193006128E-1
3.072827195E1,4.709421992E-1,-1.615249872E0,3.315776587E-1
3.074812351E1,8.632922173E-1,-3.170687199E0,5.468465686E-1
3.076797664E1,1.267562866E0,-4.819412708E0,7.733204961E-1
3.078782820E1,1.267562866E0,-4.819412708E0,7.733204961E-1
3.080768133E1,1.537565231E0,-5.935690403E0,9.474170804E-1
3.082753445E1,1.537565231E0,-5.935690403E0,9.474170804E-1
3.084738758E1,1.537565231E0,-5.935690403E0,9.474170804E-1
3.086723914E1,1.537565231E0,-5.935690403E0,9.474170804E-1
3.088709070E1,1.537565231E0,-5.935690403E0,9.474170804E-1
3.090694539E1,1.537565231E0,-5.935690403E0,9.474170804E-1
3.092679851E1,1.537565231E0,-5.935690403E0,9.474170804E-1
3.094665008E1,1.299799085E0,-4.962965965E0,8.554207683E-1
3.096650320E1,1.045958400E0,-3.895993710E0,7.415729165E-1
3.098635633E1,8.495215774E-1,-3.049805880E0,6.580938697E-1
3.100620789E1,7.111169696E-1,-2.439778328E0,5.977054238E-1
3.102606101E1,6.042853594E-1,-1.951819181E0,5.608964562E-1
3.104591258E1,5.141914487E-1,-1.544825792E0,5.424134135E-1
3.106576570E1,4.463155866E-1,-1.225378156E0,5.162335038E-1
3.108561883E1,3.864507973E-1,-9.564578533E-1,4.802273512E-1
3.110547039E1,3.364122212E-1,-7.128971815E-1,4.350756705E-1
3.112532351E1,3.205995262E-1,-4.733332992E-1,3.921231329E-1
3.114517664E1,3.076317310E-1,-2.541897595E-1,3.593458235E-1
3.116502820E1,2.898468375E-1,-8.159413934E-2,3.304431736E-1
3.118488289E1,2.554813027E-1,6.632251292E-2,2.980324328E-1
3.120473445E1,2.332108915E-1,1.857903004E-1,2.888869047E-1
3.122458758E1,2.259852290E-1,2.959554791E-1,3.215943575E-1
3.124443914E1,2.174854726E-1,3.978827000E-1,3.681248426E-1
3.126429226E1,1.916546077E-1,5.218883753E-1,4.119675159E-1
3.128414539E1,1.634326279E-1,6.561041474E-1,4.241499007E-1
3.130399851E1,1.454906464E-1,8.023278713E-1,4.129099846E-1
3.132385008E1,1.389805675E-1,8.983035088E-1,3.940080702E-1
3.134370320E1,1.394692659E-1,9.127373695E-1,3.913900852E-1
3.136355633E1,1.449496001E-1,9.150412083E-1,4.052479863E-1
3.138340789E1,1.542870998E-1,9.356361032E-1,4.279721975E-1
3.140326101E1,1.740093231E-1,9.539446235E-1,4.817806780E-1
3.142311414E1,2.353227437E-1,9.415527582E-1,5.471083522E-1
3.144296570E1,3.025004566E-1,9.157044291E-1,5.998871326E-1
3.146281883E1,3.155380785E-1,9.096132517E-1,6.373069882E-1
3.148267195E1,2.982593179E-1,9.210625887E-1,6.398726106E-1
3.150252508E1,2.856231332E-1,1.030739069E0,5.805837512E-1
3.152237664E1,2.901260853E-1,1.136191845E0,5.292187333E-1
3.154222976E1,3.043505251E-1,1.254158735E0,4.984136820E-1
3.156208133E1,3.129549921E-1,1.351478219E0,4.846953750E-1
3.158193445E1,3.129549921E-1,1.351478219E0,4.846953750E-1
3.160178758E1,3.129549921E-1,1.351478219E0,4.846953750E-1
3.162164070E1,3.129549921E-1,1.351478219E0,4.846953750E-1
3.164149226E1,3.129549921E-1,1.351478219E0,4.846953750E-1
3.166134539E1,3.005805910E-1,1.304651022E0,4.906993210E-1
3.168119851E1,2.955889702E-1,1.279553175E0,5.102644563E-1
3.170105008E1,2.914525270E-1,1.268854380E0,5.251870155E-1
3.172090320E1,2.885552943E-1,1.253879428E0,5.399175882E-1
3.174076258E1,2.834414840E-1,1.229357600E0,5.585053563E-1
3.176060789E1,2.753955126E-1,1.216162920E0,5.492202044E-1
3.178046101E1,2.770535648E-1,1.217332244E0,5.179613829E-1
3.180031414E1,2.824291885E-1,1.203770995E0,4.895299375E-1
3.182016726E1,2.886774540E-1,1.180575609E0,4.865454435E-1
3.184001883E1,3.059736788E-1,1.183211088E0,5.087634921E-1
3.185987195E1,3.486120701E-1,1.226024032E0,5.199510455E-1
3.187972508E1,4.003610611E-1,1.275853157E0,5.391321778E-1
3.189957664E1,4.660029113E-1,1.275312066E0,5.728694201E-1
3.191942976E1,5.556779504E-1,1.266323686E0,6.046518683E-1
3.193928289E1,6.461557746E-1,1.301998138E0,6.119996905E-1
3.195913445E1,7.307170033E-1,1.336206675E0,6.483025551E-1
3.197898758E1,7.761479020E-1,1.313604593E0,6.784094572E-1
3.199884070E1,7.694633007E-1,1.263880134E0,6.769782901E-1
3.201869226E1,7.481877208E-1,1.196964264E0,6.739763618E-1
3.203854539E1,7.161958814E-1,1.110273719E0,6.740810871E-1
3.205839851E1,6.887069345E-1,1.037196755E0,6.687927246E-1
3.207825164E1,6.725800633E-1,9.859190583E-1,6.477963924E-1
3.209810320E1,6.772924662E-1,9.513091445E-1,6.129945517E-1
3.211795633E1,7.033502460E-1,9.083042741E-1,5.536358953E-1
3.213780945E1,7.403686643E-1,8.629605770E-1,4.810825586E-1
3.215766258E1,7.774220109E-1,8.247727752E-1,4.293160737E-1
3.217751414E1,8.310036063E-1,7.669849396E-1,3.736749887E-1
3.219736726E1,9.449037910E-1,6.386334300E-1,3.098483086E-1
3.221722039E1,1.056692123E0,5.070006847E-1,2.665990293E-1
3.223707195E1,1.049588680E0,4.564908743E-1,2.270847857E-1
3.225692508E1,1.166630387E0,3.024306595E-1,1.807463020E-1
3.227677820E1,1.335316539E0,1.097113937E-1,1.390678287E-1
3.229662976E1,1.418237090E0,-1.246165112E-2,8.374089748E-2
3.231648289E1,1.501716137E0,-1.364149302E-1,2.338741161E-2
3.233633601E1,1.570726514E0,-1.771509200E-1,-3.953170776E-2
3.235618758E1,1.612404943E0,-2.132792324E-1,-8.937831223E-2
3.237604070E1,1.712272763E0,-3.893131316E-1,-1.033060402E-1
3.239589383E1,1.765086412E0,-5.249775648E-1,-1.119105145E-1
3.241574695E1,1.771928072E0,-5.469512939E-1,-1.446005255E-1
3.243559851E1,1.791912079E0,-5.771978498E-1,-1.864186227E-1
3.245545164E1,1.853888750E0,-7.340331078E-1,-1.936617345E-1
3.247530476E1,1.867083430E0,-8.705353141E-1,-2.245016992E-1
3.249515633E1,1.879876733E0,-1.008905053E0,-2.681698501E-1
3.251500945E1,1.888324022E0,-1.135999918E0,-3.400076032E-1
3.253486258E1,1.869457006E0,-1.251174212E0,-3.985110223E-1
3.255471414E1,1.824724317E0,-1.341634631E0,-4.350756705E-1
3.257456726E1,1.813013077E0,-1.455150843E0,-4.639608860E-1
3.259442039E1,1.816154718E0,-1.599716425E0,-4.853935242E-1
3.261427195E1,1.807253480E0,-1.709637284E0,-4.883256555E-1
3.263412508E1,1.790952206E0,-1.749168992E0,-4.544662833E-1
3.265397664E1,1.744456530E0,-1.716880322E0,-4.067838788E-1
3.267382976E1,1.700561523E0,-1.672391891E0,-3.454879224E-1
3.269368289E1,1.700840831E0,-1.681519985E0,-2.549926043E-1
3.271353601E1,1.678640246E0,-1.674364209E0,-1.814618856E-1
3.273338758E1,1.596243262E0,-1.586626410E0,-1.408655196E-1
3.275324070E1,1.506358743E0,-1.476862669E0,-1.086118370E-1
3.277309383E1,1.450839877E0,-1.369716883E0,-4.618141055E-2
