"Time (s)","Linear Acceleration x (m/s^2)","Linear Acceleration y (m/s^2)","Linear Acceleration z (m/s^2)"
1.524863050E-1,5.459182262E-1,-3.206316233E-1,-8.980031013E-1
1.722559410E-1,3.209393024E-1,-8.045911789E-2,4.553080559E0
1.920271390E-1,-2.873286486E0,1.158857703E0,6.124705315E0
2.117967740E-1,-5.213932037E0,3.138154030E0,3.273818970E0
2.315680240E-1,-5.453091621E0,4.117486000E0,2.886025429E0
2.513376070E-1,-5.811753750E0,3.938320160E0,2.670871735E0
2.711088570E-1,-5.765185833E0,2.835250854E0,3.022066116E0
2.908784410E-1,-6.206095219E0,1.895115614E0,1.965133667E0
3.106496910E-1,-5.766073227E0,1.513145685E0,-4.564867020E-1
3.304193260E-1,-2.759408474E0,1.485061407E0,-1.464039803E0
3.501905240E-1,-1.096951604E0,1.595113516E0,-3.617733955E0
3.699601590E-1,-3.124887943E-1,1.625566244E0,-5.804443836E0
3.897313570E-1,-1.265075207E-1,1.030485153E0,-2.626181602E0
4.095009930E-1,-9.229240417E-1,5.610589981E-1,1.282697678E0
4.292722430E-1,-1.306908369E0,8.111295700E-1,1.940688133E0
4.490418260E-1,-1.634792209E0,1.273219347E0,-9.819879532E-1
4.688130760E-1,-7.355961800E-1,1.024545670E0,-3.591431618E0
4.885827110E-1,-1.732815027E0,1.847879887E-1,-3.012613773E0
5.083539090E-1,-3.390396118E0,-6.344940662E-1,-2.421284676E0
5.281235450E-1,-4.704304695E0,-7.333190441E-1,-2.939284325E0
5.478947430E-1,-3.258461952E0,-5.898857117E-1,-1.527144432E0
5.676643780E-1,-2.041404486E0,-9.708952904E-2,3.448071480E0
5.874355760E-1,-3.218568802E0,3.732886314E-1,1.411101341E0
6.072052110E-1,-3.069675684E0,1.613208294E0,-4.371163845E0
6.269764610E-1,-2.264773130E0,2.662399769E0,-5.645069599E0
6.467460450E-1,-3.105254412E0,2.400030613E0,-4.212885380E0
6.665172950E-1,-4.352461338E0,1.231986523E0,-2.700234890E0
6.862868780E-1,-4.992866516E0,2.903175354E-2,-1.565347672E0
7.060581280E-1,-3.574345112E0,-2.570996284E-1,-1.899089813E-1
7.258277640E-1,-2.241246462E0,2.862443924E-1,-1.106098175E0
7.455989610E-1,-2.030836582E0,1.011290550E0,-2.908333302E0
7.653685970E-1,-2.078293800E0,1.725141048E0,-4.049456596E0
7.851397950E-1,-2.288376331E0,2.143408775E0,-4.143855572E0
8.049094300E-1,-2.360421658E0,2.323134422E0,-2.928866386E0
8.246806280E-1,-3.005956650E0,2.393847942E0,-2.417393684E0
8.444502640E-1,-3.394665718E0,2.496007442E0,-2.156175613E0
8.642215140E-1,-2.673205853E0,2.630532265E0,-1.465295315E0
8.839910970E-1,-2.356627941E0,2.440077782E0,2.255983353E-1
9.037623470E-1,-2.785061598E0,2.211100578E0,9.045200348E-1
9.235319300E-1,-2.364149809E0,2.262154579E0,2.229423523E-1
9.433031800E-1,-1.539623976E0,2.433150768E0,-6.856174469E-1
9.630727640E-1,-5.662500858E-1,2.436423302E0,-6.951427460E-2
9.828440140E-1,-1.066643953E0,2.145244598E0,-1.381855011E-1
1.002613597E0,-2.107763290E0,1.917766094E0,-6.297140121E-1
1.022384847E0,-3.187803268E0,1.575722694E0,-1.104340553E0
1.042154430E0,-2.770269394E0,1.573528767E0,-1.366743565E0
1.061925680E0,-2.682870865E0,1.803185463E0,-1.706823349E0
1.081695264E0,-3.473236322E0,1.934991837E0,-2.036280632E0
1.101466514E0,-3.805531502E0,2.017749786E0,-1.760219574E0
1.121236097E0,-3.673297167E0,1.704179764E0,2.471265793E-1
1.141007347E0,-4.212346077E0,7.241439819E-1,2.283011436E0
1.160776930E0,-3.625707865E0,2.543463707E-1,1.207815170E0
1.180548180E0,-2.344350100E0,3.544139862E-1,-1.240674019E0
1.200317764E0,-2.257696390E0,4.879808426E-2,-2.147093773E0
1.220089014E0,-2.596135378E0,-2.557401657E-1,-1.650742531E0
1.239858597E0,-1.655780911E0,-1.115522385E-1,-1.809240341E0
1.259629847E0,-1.146413326E0,4.348754883E-3,-3.788930893E0
1.279399430E0,-2.052801847E0,-1.840782166E-2,-5.623530388E0
1.299170680E0,-1.375975609E0,-3.662562370E-1,-4.949559212E0
1.318940264E0,-9.417067766E-1,-6.745502949E-1,-3.501416206E0
1.338711514E0,-1.743113756E0,-5.339088440E-1,-2.816523552E0
1.358481097E0,-1.965557814E0,-1.389272213E-1,-2.225737572E0
1.378252347E0,-2.691737652E0,1.507561207E-1,-4.320983887E-1
1.398021930E0,-3.095877171E0,2.481317520E-1,2.963439941E0
1.417793180E0,-2.587294102E0,4.603559971E-1,2.693799973E0
1.437562764E0,-1.440054059E0,5.284652710E-1,8.395671844E-2
1.457333961E0,-4.639524221E-1,5.677621365E-1,-2.499495983E0
1.477103597E0,6.706491709E-1,3.842542171E-1,-4.433235645E0
1.496874795E0,1.232457995E0,2.439504862E-1,-3.329726219E0
1.516644430E0,-9.650112391E-1,-1.412081718E-1,-2.132683754E0
1.536415628E0,-4.901293278E0,-1.040703058E0,9.559822083E-2
1.556185264E0,-6.458899498E0,-8.710387945E-1,3.344821930E0
1.575956461E0,-5.515189648E0,1.083391666E0,3.685412407E0
1.595726045E0,-3.454053402E0,3.577227116E0,1.775256157E0
1.615497295E0,-6.194470525E-1,4.939738274E0,9.566717148E-1
1.635266878E0,6.454631686E-2,5.441586971E0,1.204784393E0
1.655038128E0,-2.323096275E0,4.585985661E0,3.244401932E0
1.674807711E0,-4.519570351E0,3.326134205E0,6.273455620E0
1.694578909E0,-4.140712738E0,2.481545448E0,8.144511223E0
1.714348545E0,-1.251024365E0,1.806382298E0,4.910012245E0
1.734119743E0,2.122831583E0,9.261078835E-1,8.300904274E0
1.753889378E0,7.661288261E0,2.491301298E-2,1.223170853E1
1.773660576E0,-1.227202654E0,1.637198687E0,1.930745125E0
1.793430159E0,-1.293159604E0,-6.848855019E-1,-4.922185898E0
1.813201409E0,7.999047756E0,-2.995564938E-1,-7.703646660E0
1.832970993E0,6.026931763E0,4.740555763E0,-2.002495766E0
1.852742191E0,1.758619547E0,2.081727505E0,-2.350310802E0
1.872511826E0,1.216352224E0,1.096616745E0,-2.788726807E0
1.892283024E0,-1.049966335E0,3.598588467E0,-3.185859680E0
1.912052659E0,-1.807302237E0,3.208544970E0,3.359725952E0
1.931823857E0,1.314560413E0,5.283437967E-1,3.229567528E0
1.951593441E0,4.344394684E0,-3.635636568E-1,6.999759674E-1
1.971364691E0,2.591274261E0,-4.148967743E0,1.927603722E0
1.991134274E0,4.235289574E0,-3.014447212E0,-5.927388191E0
2.010905472E0,4.023065090E0,-4.356987953E0,-3.661179543E-1
2.030675107E0,4.704361916E0,-3.432101250E0,-3.096750736E0
2.050446305E0,3.631599426E0,1.255635023E0,-4.717877865E0
2.070215941E0,-1.069788933E-1,2.472452641E0,1.881113529E0
2.089987139E0,1.169889450E0,5.924942493E-1,-1.921091080E-1
2.109756722E0,5.008692741E0,3.826678991E-1,-5.580997467E0
2.129527972E0,8.681804657E0,1.110490561E-1,-6.512846947E0
2.149297555E0,8.223447800E0,-5.055227876E-1,-9.945960045E0
2.169068753E0,4.302750111E0,-4.775114536E0,-4.384533405E0
2.188838389E0,-1.255495071E0,-6.947164536E0,4.333123207E0
2.208609586E0,-5.043838978E0,-4.778097153E0,2.941664696E0
2.228379222E0,-7.933702469E0,-1.532659769E0,-1.764954090E0
2.248150420E0,-8.106227875E0,1.600571990E0,-7.982251644E-1
2.267920003E0,-5.857444763E0,-6.148018837E-1,3.595511913E0
2.287691253E0,-8.536071777E0,-2.196033716E0,4.427957535E0
2.307460836E0,-1.174071884E1,-1.485308647E0,1.498007059E0
2.327232034E0,-1.056984615E1,-1.707421303E0,-1.796202064E0
2.347001670E0,-6.867888451E0,-1.352201939E0,-3.668816090E0
2.366772868E0,-4.336074829E0,-1.948094368E-1,-3.364015102E0
2.386542451E0,-2.317845345E0,5.610628128E-1,-2.745544910E0
2.406313701E0,-5.191898346E-1,1.215800285E0,-9.809155464E-1
2.426083284E0,-8.812012672E-1,-2.126460075E-1,2.559568882E-1
2.445854534E0,-2.023407459E0,-8.474564552E-1,-3.167459726E0
2.465624118E0,5.468139648E-1,-3.044404984E-1,-4.643390656E0
2.485395316E0,-6.891031265E-1,-1.839337349E-1,7.697851658E-1
2.505164951E0,-7.180133343E0,6.449584961E-1,4.834095478E0
2.524936149E0,-8.920463562E0,2.644950867E0,5.470640182E0
2.544705732E0,-5.216711998E0,3.078909397E0,2.577814102E0
2.564476982E0,9.124360085E-1,2.074884892E0,3.119209766E0
2.584246566E0,7.651710510E-1,2.017170906E0,1.248464584E0
2.604017764E0,5.291223526E-1,1.064463139E0,-1.721879482E0
2.623787399E0,2.426441669E0,1.020930290E0,-5.903825760E0
2.643558597E0,4.448294163E0,8.975892067E-1,-7.582385540E0
2.663328232E0,2.330079079E0,1.015033722E0,-3.792341948E0
2.683099430E0,-6.803566933E0,-4.942183495E-1,2.334582329E0
2.702869014E0,-1.193694305E1,2.524125576E0,-1.124463081E-1
2.722640264E0,-1.269177437E0,2.771231651E0,-9.258980751E-1
2.742409847E0,-5.862390518E0,2.419404030E0,-2.592363596E0
2.762181045E0,-2.050330162E0,3.820896149E-1,-6.382273674E0
2.781950680E0,1.370058060E-1,4.176607132E-1,-6.440090179E0
2.801721878E0,2.980346680E-1,1.495089531E-1,-6.149567604E0
2.821491514E0,-8.266588211E0,-1.553515911E0,-6.970539093E0
2.841262711E0,-4.144441605E0,-1.232612133E0,-3.438325405E0
2.861032295E0,1.225253963E1,-4.751115799E0,2.007439137E-1
2.880803493E0,1.182990932E1,-5.572405815E0,3.065967798E0
2.900573128E0,-5.215811729E-1,-3.673918724E0,9.563277245E0
2.920344326E0,-3.163265228E0,-1.593064785E0,9.397413254E0
2.940113909E0,-6.503079414E0,-8.470845222E-1,-2.845664501E0
2.959885159E0,-2.867014885E0,-1.715360641E0,8.071255684E-2
2.979654743E0,-6.572084427E-1,2.351410389E0,-2.271744013E-1
2.999425941E0,-1.701507568E-1,1.837083340E0,-4.306093693E0
3.019195576E0,1.393981934E0,1.863613129E-1,-6.397702694E0
3.038966774E0,1.227691746E1,-1.281559467E0,2.620273113E0
3.058736409E0,1.067230511E1,3.308993816E0,1.253431320E0
3.078507607E0,8.287199020E0,4.878195286E0,-1.489644051E-1
3.098277191E0,8.941821098E0,4.800264835E0,2.796335697E0
3.118048389E0,4.979133606E-1,1.715098858E0,-5.925836563E-1
3.137818024E0,-5.048099518E0,-9.297814369E-1,-6.712387562E0
3.157589222E0,-1.752331734E0,1.695367813E0,-2.145689964E0
3.177358805E0,3.991631269E0,3.416451454E0,4.766959667E0
3.197130055E0,4.318757057E0,3.008220673E0,-2.138417721E0
3.216899639E0,-4.782710075E-1,1.432795525E0,-3.439111233E0
3.236670836E0,7.373110294E0,7.469704151E0,-6.826337814E0
3.256440472E0,1.476139545E0,7.270741940E0,1.517152023E1
3.276211670E0,-1.314613342E1,-1.634063721E-1,4.735574722E0
3.295981253E0,-6.413435459E0,3.935871124E0,-5.671215057E0
3.315752451E0,-5.416953564E0,-2.235245705E0,-5.056292534E0
3.335522086E0,-6.246081352E0,-5.334294319E0,2.769430161E0
3.355293284E0,-7.869335651E0,-2.308381081E0,1.659506559E0
3.375062868E0,-4.889730453E0,1.998774529E0,-4.719986916E0
3.394834066E0,2.843997002E0,-3.576086044E0,-1.753721237E0
3.414603701E0,1.149420547E1,-4.644827843E0,-8.164421082E0
3.434374899E0,1.352467537E0,-5.976783752E0,9.225205421E0
3.454144482E0,-4.326055527E0,-9.676601410E0,-3.317971706E0
3.473915680E0,1.020556927E0,-7.351722717E0,-1.422752857E1
3.493685316E0,9.869026184E0,-2.940836906E0,1.082595158E1
3.513456514E0,9.152273178E0,-1.914888382E0,-3.317800760E-1
3.533226097E0,1.601892829E0,-2.623156548E0,-1.038225651E1
3.552997347E0,-5.838411331E0,-6.976699829E-2,-3.656436443E0
3.572766930E0,-6.437362671E0,6.153000832E0,3.266785860E0
3.592538128E0,2.806576729E0,3.279532433E0,4.089027345E-1
3.612307711E0,3.317019939E0,-3.022805214E0,-3.630545437E-1
3.632078961E0,1.177160025E0,1.198032379E0,8.321489692E-1
3.651848545E0,-1.393123269E-1,4.600309372E0,4.270454049E-1
3.671619743E0,-1.627587199E0,1.032674122E1,-3.296988010E-1
3.691389378E0,-2.076889753E0,1.286367607E1,1.640870452E0
3.711160576E0,-2.347615510E-1,7.076107979E0,-2.064161301E0
3.730930159E0,-7.037054747E-2,1.047798157E0,1.940148354E0
3.750701357E0,-7.401347160E-1,-1.299014759E1,1.625051260E0
3.770470993E0,-5.535372257E0,-1.707648468E1,2.524356842E0
3.790242191E0,-5.709002614E-1,-7.385402679E0,5.730493546E0
3.810011774E0,5.137811184E0,-1.789507866E0,7.231133461E0
3.829782972E0,1.114286661E0,-1.404986382E0,6.577523232E0
3.849552607E0,-2.113148451E0,-3.219016075E0,7.429762840E0
3.869323805E0,-3.851057529E0,-1.898148537E0,7.033583641E0
3.889093389E0,-5.413929939E0,-3.263979912E0,5.725585938E0
3.908864639E0,-4.312420845E0,-5.374657631E0,1.453317404E0
3.928634222E0,1.017871857E0,-6.791539192E0,-5.451557636E-1
3.948405420E0,6.856523037E0,-4.913831711E0,-2.317355156E0
3.968175055E0,1.020259476E1,-3.130217552E0,-2.837193251E0
3.987946253E0,1.102974606E1,-7.521281242E0,-2.187531710E0
4.007715836E0,6.781512737E0,-1.366593266E1,-3.202903748E0
4.027487086E0,-3.725560665E0,-1.076646996E1,-1.109692097E0
4.047256670E0,-2.300278664E0,-6.493115425E0,-8.286966085E-1
4.067027868E0,1.333916664E0,-3.175529480E0,-1.477939367E0
4.086797503E0,2.149733543E0,-4.805059433E-1,-4.022343636E0
4.106568701E0,2.961067200E0,3.479180813E0,-7.685544968E0
4.126338284E0,3.957317352E0,6.265702724E0,-7.187602997E0
4.146109534E0,3.237624168E0,6.742447376E0,-5.710836411E0
4.165879118E0,1.881959677E0,6.195770741E0,-5.740911484E0
4.185650316E0,5.030126572E-1,4.539311409E0,-6.348192215E0
4.205419951E0,-5.670509338E-1,3.108589172E0,-5.697628021E0
4.225191149E0,-2.273241520E0,2.558472157E0,-3.033812046E0
4.244960732E0,-5.302101135E0,3.416636944E0,-9.438080788E-1
4.264731982E0,-6.190903664E0,3.962666512E0,1.581279278E0
4.284501566E0,-4.276937485E0,3.722769260E0,3.470063686E0
4.304272764E0,6.857888699E-1,4.166292191E0,4.142920971E0
4.324042399E0,2.618538618E0,5.536623955E0,3.684673786E0
4.343813597E0,8.758921623E-1,5.386344433E0,2.498056889E0
4.363583232E0,-5.302777290E-1,4.109948635E0,-4.236040115E-1
4.383354430E0,6.266835690E0,1.672720909E0,-1.055283546E-1
4.403124066E0,1.118386841E1,1.635290146E0,4.591165543E0
4.422895264E0,5.699687481E0,7.742959976E0,-7.579933643E0
4.442664847E0,2.948597670E0,1.183176899E1,-1.195285606E1
4.462436045E0,9.096332550E0,-7.905729771E0,1.280303955E1
4.482205680E0,-3.891757011E0,-4.315829086E1,-1.770596981E0
4.501976878E0,-1.183639336E1,-6.525128365E0,-8.696994781E0
4.521746514E0,5.012268066E0,1.305529404E1,7.216974258E0
4.541517711E0,-7.725815773E0,8.440715790E0,-2.200368500E1
4.561287347E0,-1.002548218E1,-6.202259064E0,-5.302409172E0
4.581058545E0,-1.285375834E0,-1.948977661E1,1.625708103E0
4.600828180E0,-3.398782253E0,-1.084667015E1,-3.920884609E0
4.620599378E0,8.891245127E-1,1.175372124E0,-2.693079233E0
4.640368961E0,6.737685680E0,6.209207535E0,-2.003336191E0
4.660140211E0,5.060849190E0,5.823191166E0,-8.430070281E-1
4.679909795E0,7.100844383E-2,2.206370354E0,-4.583605528E-1
4.699681045E0,-2.317004204E0,-1.061878204E-1,7.146385908E-1
4.719450628E0,-2.835009575E0,-2.056913376E-1,1.815163255E0
4.739221878E0,-2.441950321E0,8.297100067E-1,2.963037491E0
4.758991461E0,-3.285914660E0,1.398514748E0,4.368643761E0
4.778762711E0,-5.078447819E0,1.489055634E0,3.553401470E0
4.798532295E0,-5.116055489E0,1.452809334E0,2.668645859E0
4.818303493E0,-2.958884239E0,2.224955082E0,3.962046146E0
4.838073128E0,-3.540540934E-1,1.670582771E0,4.092755318E0
4.857844326E0,-2.574181557E-1,-2.164887428E0,6.962251186E0
4.877613961E0,-9.166128635E-1,-3.953913689E0,4.618730545E0
4.897385159E0,-3.986120224E-3,-3.907521248E0,3.936212063E0
4.917154795E0,-9.644503593E-1,-3.934742928E0,3.734174967E0
4.936925993E0,-2.012345076E0,-2.688964844E0,5.701072693E0
4.956695628E0,-1.709171653E0,-2.028353691E0,7.188026428E0
4.976466826E0,3.084077835E-1,-2.832026482E0,7.417550564E0
4.996236409E0,-1.778294444E0,-3.700727463E0,4.817340851E0
5.016007659E0,-6.615055084E0,-5.850979805E0,8.345366716E-1
5.035777243E0,-8.469449043E0,-8.553534508E0,-2.038022757E0
5.055548493E0,-8.371864319E0,-8.973822594E0,-7.473328114E0
5.075318076E0,-3.082916260E0,-6.331596375E0,-6.171034813E0
5.095089326E0,-8.327102661E-2,-7.473490715E0,-2.115157604E0
5.114858909E0,-4.236068726E-1,-1.063195038E1,-3.164139748E0
5.134630159E0,-6.088581562E0,-1.059874725E1,-2.188201427E0
5.154399743E0,-1.025000191E1,-1.004286575E1,-2.430021048E0
5.174170941E0,-6.591127396E0,-8.096309662E0,-4.725596428E0
5.193940576E0,-1.568241835E0,-2.138120651E0,-7.847862244E0
5.213711774E0,-2.062638760E0,4.291955948E0,-9.543901443E0
5.233481409E0,-8.921282291E-1,8.770134926E0,-9.969781876E0
5.253252607E0,4.781861305E-1,1.033143616E1,-8.003784180E0
5.273022243E0,2.347150087E0,5.401820183E0,-7.514890671E0
5.292793441E0,3.821343660E0,1.274974346E0,-8.625469208E0
5.312563024E0,4.093255043E0,5.434436798E-1,-8.697364807E0
5.332334274E0,2.751791000E0,3.604815960E0,-7.778385639E0
5.352103857E0,7.309315205E-1,6.445528984E0,-6.035603046E0
5.371875055E0,-9.595785141E-1,5.318752289E0,-2.247200489E0
5.391644691E0,-2.986900806E0,4.473456383E0,3.107679844E0
5.411415889E0,-5.625829220E0,4.993929863E0,7.116687775E0
5.431185524E0,-8.647808075E0,2.764994621E0,1.099691772E1
5.450956722E0,-8.394200325E0,-1.325522423E0,1.340895462E1
5.470726357E0,-6.419338703E0,-2.523231506E-2,4.016252995E0
5.490497555E0,-5.301069736E0,7.780498505E0,-2.006886482E0
5.510267139E0,4.220258713E0,4.938778877E0,-1.815721321E1
5.530038389E0,4.268939590E1,-3.708564377E1,1.490160942E1
5.549807972E0,-2.862531424E0,-3.165479279E1,-3.961662769E0
5.569579222E0,7.974742413E0,1.046502972E1,-1.294631767E1
5.589348805E0,-6.503008366E0,1.942394638E1,7.442526817E-1
5.609120003E0,-1.190335846E1,1.283898354E0,-2.827180481E1
5.628889639E0,-7.415538788E0,-1.320086670E1,3.235697508E0
5.648660836E0,-5.430713654E0,-2.373008728E1,-5.713534355E-2
5.668430472E0,-4.342108727E0,-1.006220341E1,-7.223551273E-1
5.688201670E0,-3.193466663E-1,3.293330669E0,-7.190980911E-1
5.707971253E0,2.680253029E0,8.918296814E0,5.960493088E-1
5.727742503E0,1.407927036E0,7.167685986E0,1.216331720E-1
5.747512086E0,-2.773953676E0,1.859202862E0,4.599690437E-3
5.767283336E0,-3.970852137E0,-1.510649681E0,1.871411681E0
5.787052920E0,-3.798117161E0,-8.020973206E-1,2.421776772E0
5.806824118E0,-1.826100230E0,1.654787064E0,2.612990856E0
5.826593753E0,-1.160658598E0,3.413888931E0,4.121723175E0
5.846364951E0,-2.709703922E0,2.385855198E0,4.661529541E0
5.866134534E0,-5.061625481E0,9.214324951E-1,4.190435410E0
5.885905784E0,-6.696740150E0,2.479743958E-2,2.690220833E0
5.905675368E0,-6.818052769E0,-2.376465797E0,1.623069167E0
5.925446566E0,-5.631855011E0,-4.254667282E0,3.063196898E0
5.945216201E0,-2.076192856E0,-3.920440674E0,5.181379795E0
5.964987399E0,-1.832246780E-2,-3.582921982E0,6.527465820E0
5.984757034E0,-2.683417797E-1,-4.170005798E0,5.690190315E0
6.004528232E0,-1.718072891E-1,-2.856132507E0,5.600642681E0
6.024297816E0,-2.033421278E0,-4.027557373E-1,6.349241257E0
6.044069066E0,-5.604570389E0,-1.302804947E0,3.976481676E0
6.063838649E0,-9.195049286E0,-5.900212288E0,-1.046311855E0
6.083609847E0,-5.943690300E0,-6.241170883E0,-5.553853989E0
6.103379482E0,5.912158012E0,-3.963975906E0,-6.526701927E0
6.123150680E0,8.951402664E0,-8.415318489E0,-4.519709587E0
6.142920264E0,7.004240990E0,-1.529924679E1,-1.392925262E0
6.162691514E0,-2.914575577E0,-1.273890018E1,1.070818901E-1
6.182461097E0,-7.792818069E0,-5.997653008E0,-8.295481205E-1
6.202232295E0,-2.741585255E0,-3.281565666E0,-2.678437948E0
6.222001930E0,4.890282154E-1,-1.917964935E0,-4.515732288E0
6.241773128E0,8.625967503E-1,4.268693924E-1,-5.998826981E0
6.261542764E0,1.730943680E0,3.197028160E0,-7.417335987E0
6.281313961E0,1.217296124E0,5.640939713E0,-8.311784744E0
6.301083545E0,3.444185257E-1,8.235034943E0,-9.073139191E0
6.320854743E0,1.428580284E-1,1.135268021E1,-8.219398499E0
6.340624378E0,8.198463917E-1,7.909657955E0,-7.213943005E0
6.360395576E0,2.052068710E-2,4.760923386E0,-6.135904312E0
6.380165211E0,-6.816585064E-1,3.524693966E0,-4.297788143E0
6.399936409E0,-1.126123905E0,2.266553879E0,-2.712555408E0
6.419705993E0,-8.247756958E-2,2.400036812E0,-1.567191601E0
6.439477243E0,2.128582478E0,4.977688789E0,1.026210785E-1
6.459246826E0,7.576489449E-1,4.429162979E0,2.557973862E0
6.479018024E0,-2.740108967E0,1.860546112E0,5.128087521E0
6.498787659E0,-5.943083763E0,3.951330185E-1,6.199217319E0
6.518558857E0,-4.657504559E0,2.402136803E0,3.183923244E0
6.538328493E0,1.273636341E0,5.159892082E0,-2.394315720E0
6.558099691E0,1.237420750E1,-8.558156013E0,1.204246807E1
6.577869274E0,2.131964874E1,-5.361249542E1,-7.357044220E-1
6.597640524E0,-1.881063700E0,7.627556801E0,-3.533583069E1
6.617410107E0,2.399834251E1,1.904756165E1,1.973915482E1
6.637181357E0,-9.971419334E0,1.036885834E1,-2.331944275E1
6.656950941E0,-5.127851009E0,-1.316305542E1,-1.525757599E1
6.676722191E0,-5.100788116E0,-2.593673706E1,4.822260380E0
6.696491774E0,-6.159346581E0,-1.537880516E1,3.200674057E0
6.716263024E0,-1.344114423E0,-1.925784111E0,-5.383491516E-1
6.736032607E0,1.622806191E0,6.342669487E0,1.241397142E0
6.755803805E0,3.498521566E0,8.667312622E0,-1.041385412E0
6.775573441E0,3.038902044E0,5.457893372E0,9.377725124E-1
6.795344639E0,1.854669452E-1,-1.668267250E0,4.484497070E0
6.815114274E0,-3.191514015E0,-3.235014915E0,3.747939110E0
6.834885472E0,-2.904487610E0,1.891916275E0,4.157180309E0
6.854655107E0,-2.404721260E0,7.040074825E0,4.116839409E0
6.874426305E0,-5.088659286E0,6.360648155E0,1.151934266E0
6.894195941E0,-5.857575893E0,1.475072861E0,4.134058475E0
6.913967139E0,-3.376034498E0,8.019790649E-1,8.268776894E0
6.933736774E0,-1.658154726E-1,2.327403069E0,3.848341227E0
6.953507972E0,2.587620020E-1,9.659709930E-1,4.455085754E0
6.973277607E0,-1.556924105E0,-1.474785805E0,6.148947716E0
6.993048805E0,-2.587921858E0,-3.888155937E0,4.609658718E0
7.012818441E0,-2.096399307E0,-2.528008461E0,6.378222466E0
7.032589639E0,-3.942630291E0,-2.612383842E0,4.890119553E0
7.052359274E0,-6.509337902E0,-4.476876259E0,2.425594330E0
7.072130524E0,-4.799103260E0,-9.259870529E0,7.454118729E-1
7.091900107E0,6.069229126E0,-9.416505814E0,-1.937564611E0
7.111671357E0,1.393622112E1,-4.746611595E0,-4.501300812E0
7.131440941E0,1.238316727E1,-4.307652473E0,-2.241548061E0
7.151212191E0,7.672514915E0,-1.100704765E1,-2.197684288E0
7.170981774E0,9.377705455E-1,-1.669062996E1,-1.717891693E0
7.190753024E0,-6.724071026E0,-1.205963898E1,-5.116020441E-1
7.210522607E0,-2.690478086E0,-7.695100784E0,-2.351843357E0
7.230293857E0,3.569731236E0,-4.478603363E0,-5.094230175E0
7.250063441E0,3.832425356E0,5.006542206E-1,-6.882707596E0
7.269834691E0,4.787480354E0,4.915950775E0,-6.578796387E0
7.289604326E0,4.096583843E0,8.726438522E0,-7.919813633E0
7.309375524E0,3.325491428E0,1.153288078E1,-7.702331066E0
7.329145107E0,1.892094612E0,1.204664993E1,-6.544655800E0
7.348916357E0,5.116816759E-1,8.591751099E0,-5.904191971E0
7.368685993E0,-1.434494019E0,6.095518112E0,-6.185922146E0
7.388457191E0,-3.209337234E0,4.288380623E0,-4.800718784E0
7.408226826E0,-4.464970112E0,3.092304230E0,-3.261841774E0
7.427998024E0,-3.144527435E0,3.647210121E0,-1.406067133E0
7.447767659E0,2.700586319E-1,3.897786140E0,1.535245419E0
7.467538857E0,3.006354094E0,2.774106026E0,2.933745384E0
7.487308493E0,3.905548334E0,2.354474545E0,2.664789677E0
7.507079691E0,4.260759354E0,2.341525078E0,3.465500832E0
7.526849326E0,3.699034691E0,8.231544495E-1,5.031433582E0
7.546620524E0,2.469687223E0,-1.284066200E0,5.649128437E0
7.566390159E0,1.130805016E0,5.246629715E-1,4.475800037E0
7.586161357E0,-6.295459270E-1,2.440359116E0,7.038012981E0
7.605930993E0,6.456270218E0,-1.464331627E0,-5.716434479E0
7.625702191E0,2.266622066E0,-8.725754738E0,-1.044595242E1
7.645471826E0,1.299283743E0,-2.102217293E1,1.051855659E1
7.665243024E0,-5.398674011E0,-7.718410492E-1,-1.767108154E1
7.685012659E0,4.694534302E0,3.214903831E0,1.951837540E0
7.704783857E0,-3.534658909E0,-3.384375572E0,-2.149557114E1
7.724553493E0,2.955935001E0,-5.431529045E0,1.955890656E-1
7.744324691E0,2.522227764E0,-4.195856094E0,-3.778109550E0
7.764094326E0,1.544620275E0,-2.491837502E0,-4.102195740E0
7.783865524E0,4.380731285E-1,-7.386760712E-1,-1.845911145E0
7.803635159E0,-1.808852077E0,1.427121162E0,-8.446174860E-2
7.823406357E0,-2.021340370E0,2.507931709E0,1.557378888E0
7.843175993E0,-1.384724379E0,2.842704773E0,1.632128358E0
7.862947191E0,-1.641786456E0,2.122988701E0,1.552928686E0
7.882716826E0,-2.317707062E0,1.282715797E0,1.506169438E0
7.902488024E0,-1.508594751E0,1.328228951E0,3.581591129E0
7.922257659E0,-1.670552135E0,2.048155785E0,6.352988243E0
7.942028857E0,-3.417571783E0,3.642941475E0,6.160242558E0
7.961798441E0,-4.416429043E0,3.112280846E0,3.437795162E0
7.981569691E0,-2.400452614E0,1.426495552E0,1.673843384E0
8.001339274E0,1.525390863E0,8.089399338E-1,4.045877457E0
8.021110524E0,3.729358673E0,-1.882405281E0,6.573563576E0
8.040880107E0,1.816511154E-2,-3.020240784E0,4.227441788E0
8.060651357E0,-6.798260212E-1,-2.439593315E0,3.075954914E0
8.080420941E0,1.589305401E-1,-2.840043068E0,3.333941698E0
8.100192191E0,1.703950167E-1,-2.414735794E0,3.420955181E0
8.119961774E0,6.363687515E-1,-1.049645424E0,4.255081654E0
8.139732972E0,-9.225751162E-1,-1.875874519E0,4.926303864E0
8.159502607E0,-1.568399429E0,-6.418044090E0,3.766431093E0
8.179273805E0,-2.560677052E0,-8.127105713E0,2.472022772E0
8.199043441E0,-5.565007687E0,-6.384132385E0,-2.613900185E0
8.218814639E0,-6.410272121E-1,-5.005665779E0,-2.575466633E0
8.238584274E0,5.648376942E0,-5.517294884E0,-2.576308727E0
8.258355472E0,6.392089367E0,-6.722271919E0,-3.372804403E0
8.278125107E0,6.701925278E0,-9.710925102E0,-3.416296244E0
8.297896305E0,2.460448265E0,-1.077517319E1,-1.509970903E0
8.317665889E0,-4.186117649E0,-7.757276535E0,-2.268275499E0
8.337437139E0,-3.331792355E0,-6.461179733E0,-3.855464458E0
8.357206722E0,-2.125009060E0,-3.640320778E0,-4.643191338E0
8.376977920E0,2.209187746E-1,1.094589233E0,-5.501729965E0
8.396747555E0,1.463774323E0,5.755860806E0,-6.934192657E0
8.416518753E0,2.430452108E0,9.117228508E0,-7.848661423E0
8.436288389E0,2.182826996E0,1.170982647E1,-7.506108284E0
8.456059586E0,1.850897074E0,1.052317047E1,-7.325092316E0
8.475829170E0,1.322489023E0,7.773098946E0,-7.586064339E0
8.495600420E0,-1.842975616E-4,6.425055027E0,-6.897436142E0
8.515370003E0,-1.256611586E0,5.597385406E0,-5.320753574E0
8.535141201E0,-1.222258091E0,4.761322021E0,-2.358722210E0
8.554910836E0,-7.363379002E-1,4.916448593E0,3.177560329E0
8.574682034E0,4.465982914E-1,4.535001755E0,8.869826317E0
8.594451670E0,5.921177864E-1,2.330074310E0,9.631676674E0
8.614222868E0,-1.846681595E0,-2.851081848E0,8.603127480E0
8.633992451E0,-1.591167927E0,-8.971055031E0,4.469742298E0
8.653763649E0,6.782171726E-1,-6.735922813E0,-1.081096649E0
8.673533284E0,6.275593758E0,4.913002491E0,3.423773766E0
8.693304482E0,2.859959841E0,1.136301613E1,9.345255852E0
8.713074118E0,3.106553555E-1,8.814195633E0,-9.165634155E0
8.732845316E0,1.173046494E1,2.082637787E0,-1.871578026E1
8.752614899E0,5.045500278E0,-2.912279701E1,2.365149498E1
8.772386149E0,-2.175538254E1,-3.120107269E1,-2.641738510E1
8.792155732E0,3.572242498E0,8.964796066E0,3.037398338E0
8.811926930E0,4.874932289E0,9.867680550E0,-8.108224869E0
8.831696566E0,-5.350278854E0,1.623289108E0,-1.301341629E1
8.851467764E0,-2.604022741E0,-8.712018013E0,-8.389384747E-1
8.871237347E0,-3.806902170E0,-8.826682091E0,-3.252675533E-1
8.891008597E0,-2.563642025E0,-2.462624550E0,-6.647754908E-1
8.910778180E0,-1.472035170E0,3.725193977E0,7.457615137E-1
8.930549430E0,6.061071157E-1,5.059390068E0,7.650124431E-1
8.950319014E0,-1.147318363E0,2.618036270E0,-6.191383600E-1
8.970090211E0,-2.237371922E0,-1.535597801E0,3.090705276E-1
8.989859847E0,-1.139359713E0,-1.313581467E0,2.656946421E0
9.009631045E0,1.628717422E0,1.392404556E0,3.878323555E0
9.029400628E0,2.676064491E0,4.260215282E0,4.205688000E0
9.049171878E0,-2.094313860E0,4.874613762E0,5.224637985E0
9.068941461E0,-6.461146355E0,2.003507614E0,1.444695950E0
9.088712659E0,-6.468138695E0,1.016588211E-1,-3.945050240E-1
9.108482295E0,-4.712764740E0,-7.004814148E-1,5.378213882E0
9.128253493E0,-3.125410557E0,-2.640362740E0,5.396223068E0
9.148023076E0,-5.007634163E-1,-3.351110458E0,5.786269188E0
9.167794326E0,-1.118402958E0,-2.648061752E0,6.509841919E0
9.187563909E0,-5.806272984E0,-2.779016495E0,4.682597160E0
9.207335107E0,-7.632466316E0,-3.390718460E0,4.605342865E0
9.227104743E0,-7.492239952E0,-2.861006737E0,1.126446009E0
9.246875941E0,-4.722608566E0,-6.194179535E0,3.485835791E-1
9.266645576E0,-2.787993670E0,-9.149573326E0,-2.859343886E-1
9.286416774E0,7.279541969E0,-6.700012207E0,-3.258342266E0
9.306186357E0,9.893101692E0,-4.154612541E0,-2.499600410E0
9.325957555E0,4.973471642E0,-7.189608574E0,-2.910365105E0
9.345727191E0,-3.846330166E0,-1.156837368E1,-3.295921326E0
9.365498389E0,-8.322000504E0,-1.136682892E1,-2.509780169E0
9.385268024E0,-2.390474319E0,-9.881150246E0,-1.734170675E0
9.405039222E0,2.388857603E-1,-6.193541527E0,-2.685419083E0
9.424808805E0,-1.826096892E0,-3.475803375E0,-5.051328182E0
9.444580055E0,-2.401662111E0,-4.817848206E-1,-6.522095203E0
9.464349639E0,-8.733260632E-1,3.261408806E0,-8.859756470E0
9.484120836E0,3.151230812E-1,7.479591846E0,-9.783560753E0
9.503890472E0,1.139976978E0,1.229756451E1,-9.473433495E0
9.523661670E0,1.722859621E0,1.052098465E1,-6.652543068E0
9.543431253E0,2.417942047E0,6.126702785E0,-4.293671608E0
9.563202503E0,1.662434101E0,4.080891132E0,-3.427157879E0
9.582972086E0,2.542217255E0,3.719032288E0,-5.147743702E0
9.602743284E0,2.890127659E0,5.295321465E0,-5.673043251E0
9.622512920E0,1.900584459E0,7.500362396E0,-4.380968094E0
9.642284118E0,4.305039644E-1,6.958888054E0,-1.015313387E0
9.662053753E0,-1.697090864E-1,3.273600578E0,3.799945831E0
9.681824951E0,-1.413028717E0,-9.096078873E-1,7.265115261E0
9.701594586E0,-3.387685776E0,-2.352438927E0,7.396077633E0
9.721365784E0,-3.062525272E0,-7.484855652E-1,2.116826057E0
9.741135368E0,2.024876356E0,-6.534176826E0,4.659857273E0
9.760906618E0,1.616370010E1,-3.893675995E1,-9.097856522E0
9.780676201E0,1.022361469E1,-4.047456741E0,-1.236119556E1
9.800447399E0,1.666087723E1,1.749435806E1,-1.703341484E0
9.820217034E0,-3.940677643E0,9.770156860E0,-8.852995872E0
9.839988284E0,-8.847358704E0,-5.113864899E0,-2.193332672E1
9.859757868E0,-2.973635674E0,-1.686629677E1,5.745583534E0
9.879529066E0,-6.313296795E0,-1.410643959E1,2.740993261E0
9.899298701E0,-3.397704363E0,-6.162347794E-1,-1.362048268E0
9.919069951E0,1.536386967E0,6.813993931E0,5.320343971E-1
9.938839534E0,4.783448696E0,8.110108376E0,2.142723560E0
9.958610732E0,8.917347193E-1,5.907438755E0,1.333563566E0
9.978380368E0,-4.199000835E0,5.902662277E-1,-5.693359375E-1
9.998151566E0,-1.951360106E0,-3.300207138E0,1.476166725E0
1.001792120E1,7.014920712E-1,-2.748845100E0,3.462556601E0
1.003769245E1,9.162093401E-1,1.736021042E-1,3.588654518E0
1.005746203E1,-3.972318172E-1,3.198039055E0,4.435679436E0
1.007723328E1,-2.151021481E0,3.602478027E0,4.851589680E0
1.009700287E1,-2.336203575E0,2.014929771E0,4.008114338E0
1.011677412E1,-2.795085669E0,1.017641068E0,3.983818293E0
1.013654375E1,-2.551548481E0,1.479501724E-1,5.274003983E0
1.015631495E1,-1.763105512E0,-4.099168777E-1,6.621968269E0
1.017608459E1,-5.258071423E-2,-5.173654556E-1,4.982855797E0
1.019585578E1,2.675559044E0,-1.104727745E0,4.910102844E0
1.021562542E1,-5.234559774E-1,-8.948631287E-1,5.600704670E0
1.023539667E1,-5.724567890E0,-2.077794075E0,5.572053909E0
1.025516631E1,-5.938863277E0,-4.957330704E0,4.628435135E0
1.027493750E1,-5.251627445E0,-6.990567207E0,5.769107342E-1
1.029470714E1,-3.439296484E-1,-8.655002594E0,-2.595540285E0
1.031447839E1,6.872633934E0,-6.216610909E0,-4.250151634E0
1.033424797E1,1.215144730E1,-7.072885513E0,-3.038118601E0
1.035401922E1,1.064012814E1,-1.393591976E1,-4.052899361E0
1.037378886E1,5.886472702E0,-1.779125786E1,-1.383742809E0
1.039356006E1,-2.936681747E0,-1.151049328E1,3.123205900E-1
1.041332969E1,5.698424578E-1,-8.776146889E0,-2.599475145E0
1.043310094E1,4.310400486E0,-6.459843636E0,-4.625491142E0
1.045287058E1,5.002728462E0,-1.798307419E0,-8.004490852E0
1.047264177E1,5.859369755E0,3.770466805E0,-6.279034615E0
1.049241141E1,4.759804726E0,8.087580681E0,-6.396863937E0
1.051218266E1,1.594641209E0,1.159922409E1,-7.032085419E0
1.053195230E1,-1.686820507E0,1.053059006E1,-6.766927719E0
1.055172349E1,-3.455821037E0,7.175753117E0,-7.485256672E0
1.057149318E1,-2.943070173E0,5.241195679E0,-7.618728638E0
1.059126438E1,-4.988016129E0,4.847658157E0,-6.363428116E0
1.061103401E1,-6.809126854E0,5.811093807E0,-4.040426254E0
1.063080526E1,-5.585203171E0,6.916631222E0,-1.145953655E0
1.065057490E1,-2.956201315E0,6.689226627E0,3.351984024E0
1.067034610E1,3.486895561E-1,4.588541031E0,7.650674343E0
1.069011573E1,3.548992157E0,1.472221375E0,1.100507641E1
1.070988698E1,3.408256054E0,-1.904871941E0,8.216935158E0
1.072965662E1,8.442028046E0,-6.891807556E0,2.838078022E0
1.074942787E1,7.672687531E0,-1.495022774E0,-4.597177505E-1
1.076919750E1,3.636191845E0,9.383517265E0,3.856401443E-1
1.078896875E1,6.905607700E0,1.109705448E1,-1.006502914E1
1.080873834E1,9.469705582E0,4.905457020E0,-9.144309998E0
1.082850959E1,-3.498213291E-1,-3.613996887E1,3.071411324E1
1.084827922E1,-2.995239449E1,-2.933768082E1,-4.385573578E1
1.086805047E1,7.524226189E0,7.503330231E0,1.850998306E1
1.088782011E1,1.923870564E0,8.244258881E0,-1.264767933E1
1.090759136E1,-1.011124134E1,-6.580686569E-1,-1.235562992E1
1.092736099E1,-3.957584143E0,-1.142290688E1,-2.701682091E0
1.094713224E1,-2.442900419E0,-1.150490952E1,-2.571527958E-1
1.096690188E1,-1.043803215E0,-3.958214760E0,-4.899121523E-1
1.098667313E1,4.591848850E-1,3.607706547E0,-2.004188299E0
1.100644276E1,4.039005280E0,5.527307987E0,-2.264332771E-2
1.102621401E1,2.596491814E0,3.031309605E0,7.253625393E-1
1.104598365E1,-8.852503300E-1,1.949920654E-1,3.012678623E0
1.106575490E1,-2.751001835E0,2.862510681E-1,4.019181252E0
1.108552453E1,-3.027975082E0,2.204566002E0,2.848512888E0
1.110529578E1,-2.085481882E0,3.867897034E0,3.162591934E0
1.112506542E1,-3.398292065E0,4.121935844E0,2.892994404E0
1.114483667E1,-5.665303230E0,2.426152706E0,2.179521561E0
1.116460631E1,-5.487205505E0,1.377363205E-1,2.269507408E0
1.118437756E1,-3.646286964E0,-1.747954369E0,4.694772720E0
1.120414719E1,-7.261023521E-1,-2.212306023E0,5.020367622E0
1.122391844E1,6.833968163E-1,-2.224130630E0,8.820543289E0
1.124368808E1,-3.502156496E0,-3.856554031E0,6.301260948E0
1.126345933E1,-6.849761963E0,-5.727595329E0,1.510990381E0
1.128322901E1,-3.973715782E0,-4.397687912E0,5.169244766E0
1.130300026E1,-3.501122952E0,-2.537267685E0,2.266634941E0
1.132276990E1,-3.831078291E0,-5.811660767E0,1.353001595E0
1.134254115E1,-5.248697758E0,-9.060277939E0,-1.457632184E0
1.136231078E1,9.721691608E-1,-7.055336952E0,-3.007352352E0
1.138208203E1,6.970533848E0,-4.537612915E0,-4.542214394E0
1.140185172E1,4.919399261E0,-6.167514801E0,-3.756472588E0
1.142162297E1,2.467107773E-1,-1.332089901E1,-3.916122437E0
1.144139261E1,-8.489104271E0,-1.276595020E1,-3.438901424E0
1.146116386E1,-8.921701431E0,-8.503777504E0,-7.492742538E-1
1.148093349E1,-4.316793442E0,-5.342551231E0,-2.813400745E0
1.150070474E1,-6.089070320E0,-2.451725006E0,-5.413393021E0
1.152047443E1,-6.731217384E0,5.253028870E-2,-7.738803864E0
1.154024568E1,-2.922945023E0,2.896686554E0,-9.758529663E0
1.156001532E1,1.265608191E0,8.693131447E0,-1.002599525E1
1.157978657E1,4.870832443E0,1.012303638E1,-8.647428513E0
1.159955620E1,3.456971645E0,4.380470276E0,-6.419366837E0
1.161932750E1,1.560750484E0,3.120236397E-1,-6.646265984E0
1.163909714E1,6.358059645E-1,-7.226896286E-1,-6.691526890E0
1.165886839E1,2.567147732E0,2.042491436E0,-7.591064453E0
1.167863802E1,3.168929338E0,7.172452450E0,-8.963994026E0
1.169840927E1,1.926906824E0,7.383095741E0,-8.198665619E0
1.171817896E1,3.264060020E-1,6.980470657E0,-5.632020473E0
1.173795021E1,5.089042187E-1,6.253609180E0,-3.645437241E0
1.175771985E1,-1.217123508E0,3.828687191E0,2.254948139E0
1.177749110E1,-2.840618610E0,-8.535957336E-1,1.041796494E1
1.179726078E1,-1.134643078E0,3.081645966E-1,8.515462875E0
1.181703203E1,1.806607842E-1,-5.233670235E0,7.463663578E0
1.183680167E1,1.393389511E1,-5.140010071E1,-4.816493034E0
1.185657292E1,1.003459549E1,-4.312448502E-1,-1.889098549E1
1.187634256E1,2.643542671E1,2.024166489E1,1.099342728E1
1.189611386E1,-9.232562065E0,1.275146484E1,-2.272678185E1
1.191588349E1,-3.596271038E0,-6.969673157E0,-1.518745041E1
1.193565474E1,-7.817152500E0,-2.303487206E1,2.862578869E0
1.195542438E1,-7.777981758E0,-2.235631371E1,1.878854752E0
1.197519568E1,-1.339423418E0,-4.719654083E0,7.023099661E-1
1.199496532E1,1.974765658E0,6.624379158E0,3.017406225E0
1.201473657E1,5.143684864E0,1.034968376E1,2.239743233E0
1.203450620E1,1.615139246E0,7.531033516E0,-5.323421955E-1
1.205427750E1,-1.983143330E0,3.462982178E-1,6.402275562E-1
1.207404714E1,-9.727313519E-1,-3.544517517E0,4.677528858E0
1.209381839E1,9.358778596E-2,-3.774042130E-1,6.490503788E0
1.211358808E1,-1.802263737E0,4.818625450E0,6.048831463E0
1.213335933E1,-5.893949032E0,6.616673470E0,5.421544552E0
1.215312896E1,-8.250397682E0,4.226050377E0,2.299169064E0
1.217290021E1,-5.527688503E0,1.249977112E0,4.038578033E0
1.219266990E1,-3.595265746E-2,1.031764984E0,6.884243965E0
1.221244115E1,1.688776851E0,6.752834320E-1,5.572244644E0
1.223221078E1,1.462390184E0,-1.994422913E0,6.472534657E0
1.225198209E1,3.456113815E0,-4.794052124E0,5.850279808E0
1.227175172E1,1.641097426E0,-4.616906166E0,5.957065582E0
1.229152297E1,-1.684363127E0,-3.031059265E0,6.432865143E0
1.231129266E1,-5.019848347E-1,-2.130719185E0,5.371366978E0
1.233106391E1,-2.233009815E0,-6.036931038E0,1.297690630E0
1.235083360E1,-5.596446514E0,-1.231550789E1,-4.173758984E0
1.237060485E1,4.079948902E0,-8.609961510E0,-2.813595295E0
1.239037453E1,9.962718964E0,-5.515532494E0,-3.006608486E0
1.241014578E1,6.754263401E0,-9.786758423E0,-2.073152542E0
1.242991542E1,4.715186119E0,-1.733611870E1,-4.082022190E0
1.244968672E1,3.132980347E0,-1.650898170E1,-4.580553055E0
1.246945636E1,1.104398489E0,-1.038689613E1,-3.419633865E0
1.248922766E1,2.723667145E0,-7.735438347E0,-6.343658924E0
1.250899730E1,5.040840626E0,-3.450118065E0,-6.390457630E0
1.252876860E1,3.820010185E0,3.575490952E0,-6.874388218E0
1.254853823E1,1.236332655E0,9.232234001E0,-7.831376076E0
1.256830953E1,6.848982573E-1,1.415081787E1,-8.573264122E0
1.258807917E1,-2.869819164E0,1.267574501E1,-7.040899277E0
1.260785047E1,-2.842364788E0,7.156956196E0,-7.224956512E0
1.262762016E1,-1.043772817E0,5.197165489E0,-8.420400620E0
1.264739141E1,-2.358423233E0,6.513349533E0,-8.863035202E0
1.266716110E1,-4.686228752E0,8.661264420E0,-7.603412628E0
1.268693235E1,-5.366317749E0,9.153014183E0,-3.862691879E0
1.270670203E1,-4.866914749E0,8.037652969E0,2.909144878E0
1.272647328E1,-1.280609846E0,4.614037514E0,1.123699570E1
1.274624297E1,3.941287279E0,-7.385988235E-1,1.490110397E1
1.276601422E1,2.146225214E0,-7.392334938E0,8.438570023E0
1.278578391E1,5.431589127E0,-1.233950233E1,1.192378998E0
1.280555521E1,2.030992746E0,1.179323196E0,8.208851814E-1
1.282532485E1,4.650020599E-2,1.300490379E1,5.151880264E0
1.284509615E1,6.968710423E-1,1.279104424E1,-8.362207413E0
1.286486578E1,8.355690002E0,7.160184860E0,-1.497462845E1
1.288463709E1,1.651237488E1,-3.964551544E1,2.673664284E1
1.290440677E1,-3.170992279E1,-3.868077469E1,-3.178367233E1
1.292417802E1,6.721625805E0,8.612721443E0,6.735978127E0
1.294394771E1,6.519433975E0,1.442256165E1,-5.834142685E0
1.296371901E1,-9.825611115E0,4.852622509E0,-2.165040588E1
1.298348865E1,-2.442097664E0,-8.417597771E0,-1.393883705E0
1.300325995E1,-3.049432993E0,-1.295403767E1,1.573202610E-1
1.302302964E1,-4.258978367E0,-8.948610306E0,-2.343189478E0
1.304280089E1,-3.333842754E-2,7.452774048E-2,-1.494854450E0
1.306257058E1,2.725683689E0,5.553326607E0,2.226555347E-2
1.308234188E1,3.012686253E0,6.273829937E0,2.245749950E0
1.310211151E1,1.822180748E-1,5.038827896E0,2.146216154E0
1.312188282E1,-1.794591904E0,3.208872795E0,9.498934746E-1
1.314165250E1,-2.809235334E0,2.060203552E-1,1.120528936E0
1.316142380E1,-3.564757824E0,-1.071518898E0,2.940455198E0
1.318119344E1,-4.377933502E0,4.330987930E-1,4.341931820E0
1.320096474E1,-4.341426849E0,2.666217804E0,3.664793968E0
1.322073443E1,-4.194003105E0,3.134103775E0,4.073915958E0
1.324050573E1,-3.699986219E0,7.647323608E-2,3.084568024E0
1.326027537E1,-1.257930398E0,-3.181538582E0,3.147856236E0
1.328004667E1,-9.400844574E-4,-2.791239738E0,6.885944843E0
1.329981636E1,-1.685911775E0,-1.587609291E0,8.528141022E0
1.331958766E1,-5.551654816E0,-2.962652206E0,4.810366631E0
1.333935735E1,-5.817526817E0,-5.023476601E0,1.338187695E0
1.335912865E1,3.236112595E-1,-4.999720573E0,6.278307915E0
1.337889834E1,2.737389565E0,-2.346593857E0,5.709579468E0
1.339866959E1,-1.990241289E0,-3.777329445E0,1.036665440E0
1.341843927E1,-6.984508514E0,-6.558971405E0,-1.186172843E0
1.343821058E1,-7.191872597E0,-8.967331886E0,-3.486099482E0
1.345798026E1,4.061166763E0,-6.041573524E0,-5.016736031E0
1.347775157E1,6.058203697E0,-6.337428093E0,-5.111288071E0
1.349752125E1,2.163825750E0,-1.060305691E1,-4.262941360E0
1.351729256E1,-5.249312878E0,-1.112350845E1,-2.468266010E0
1.353706224E1,-3.225188017E0,-8.713741302E0,-1.790963769E0
1.355683355E1,1.409430265E0,-4.897826195E0,-2.744392872E0
1.357660323E1,7.654918432E-1,-2.608286858E0,-4.629400730E0
1.359637453E1,-8.656826615E-1,-1.151768684E0,-6.174557686E0
1.361614422E1,-1.102006435E-1,1.914433479E0,-7.639674187E0
1.363591552E1,1.498219967E0,7.028372288E0,-8.128016472E0
1.365568521E1,1.802312732E0,1.040333176E1,-7.447031975E0
1.367545651E1,9.471154213E-1,1.004996777E1,-6.337055683E0
1.369522620E1,2.507042885E-2,7.377801418E0,-5.146674633E0
1.371499750E1,-4.106602669E-1,5.074468613E0,-4.845220089E0
1.373476714E1,8.851304054E-1,4.807377815E0,-4.986137867E0
1.375453849E1,1.558024764E0,5.207321644E0,-6.020083427E0
1.377430818E1,2.190038204E0,5.722608566E0,-5.196796417E0
1.379407948E1,2.283236980E0,5.231313229E0,-2.662276983E0
1.381384917E1,2.827034473E0,2.609132767E0,1.535491943E0
1.383362047E1,3.835608482E0,-2.834825516E-1,6.354108810E0
1.385339016E1,6.035301685E-1,-2.276679993E0,1.071983528E1
1.387316146E1,-8.245570183E0,-2.471050262E0,8.648682594E0
1.389293115E1,-1.337138367E1,-4.674768448E-1,5.009287834E0
1.391270245E1,-1.131842804E1,4.070034027E0,2.241492271E0
1.393247214E1,-3.287528276E0,-1.960630417E0,1.026000977E-1
1.395224344E1,1.718687057E1,-3.414099884E1,-1.070037651E1
1.397201318E1,1.327726173E1,-1.125920391E1,-9.387075424E0
1.399178448E1,1.943969727E1,1.323484421E1,-1.048946381E-1
1.401155417E1,-6.610997915E-1,8.150533676E0,-1.079840851E1
1.403132547E1,-9.043168068E0,-5.085679054E0,-2.072949791E1
1.405109516E1,-9.062780380E0,-1.308380604E1,4.909203529E0
1.407086646E1,-4.624685764E0,-1.264723206E1,2.502162218E0
1.409063620E1,-1.630287409E0,-1.864875793E0,-3.556058884E0
1.411040750E1,2.554200888E0,4.653178215E0,-2.771046638E0
1.413017719E1,4.475484848E0,6.554501057E0,1.909800887E0
1.414994849E1,8.987121582E-1,5.128954411E0,3.694105148E-2
1.416971823E1,-1.910605669E0,6.262521744E-1,-9.640845060E-1
1.418948953E1,-9.501585364E-1,-1.822533607E0,1.450976610E0
1.420925922E1,-4.986877441E-1,-7.756328583E-1,3.622946262E0
1.422903052E1,-1.055905104E0,2.572946548E0,2.693235397E0
1.424880026E1,-1.917847633E0,4.719214439E0,2.286644220E0
1.426857157E1,-3.520124435E0,4.618625641E0,3.241309404E0
1.428834125E1,-3.555714846E0,2.667106628E0,2.619269848E0
1.430811261E1,-2.645128489E0,1.025857925E0,2.325950146E0
1.432788230E1,-8.930512071E-1,9.525022507E-1,2.870921612E0
1.434765360E1,5.123406649E-1,4.601984024E-1,4.417309761E0
1.436742334E1,-3.710709810E-1,-7.282352448E-2,5.246160507E0
1.438719464E1,-6.307116151E-1,-2.327630043E0,4.212041378E0
1.440696433E1,-1.952714562E0,-2.484094620E0,3.573661327E0
1.442673568E1,-3.236119747E0,-2.704064369E0,4.692273140E0
1.444650537E1,-3.501580715E0,-3.884469032E0,4.942512989E0
1.446627667E1,-2.819056511E0,-4.684595108E0,3.667372704E0
1.448604641E1,-2.488496780E0,-6.092858315E0,1.555815220E0
1.450581771E1,-2.006356239E0,-6.600637436E0,-4.152102470E-1
1.452558740E1,1.394354224E0,-5.157629013E0,-1.101727366E0
1.454535875E1,8.347013474E0,-4.681961060E0,-1.699071884E0
1.456512844E1,9.353080750E0,-4.635513306E0,-2.542504311E0
1.458489980E1,5.379720688E0,-6.494007111E0,-2.567195892E0
1.460466948E1,-7.949819565E-1,-8.558222771E0,-3.135782719E0
1.462444078E1,-3.763684750E0,-8.513772964E0,-2.003446579E0
1.464421052E1,-9.827432632E-1,-6.176581383E0,-1.767475247E0
1.466398183E1,2.243732929E0,-3.512197495E0,-3.098686934E0
1.468375157E1,2.046775818E0,-7.062482834E-1,-5.373053074E0
1.470352287E1,1.633551002E0,1.945732117E0,-6.331459999E0
1.472329261E1,1.802172899E0,4.853604317E0,-6.081785679E0
1.474306391E1,1.238442659E0,7.280749321E0,-5.630464077E0
1.476283365E1,6.168882847E-1,8.260122299E0,-5.336805344E0
1.478260495E1,-2.189673781E-1,7.700103283E0,-5.390110493E0
1.480237469E1,-5.923957229E-1,5.822103024E0,-5.660282135E0
1.482214599E1,-1.452447295E0,5.272306442E0,-5.953633785E0
1.484191573E1,-9.122058153E-1,5.856168747E0,-6.190963745E0
1.486168703E1,9.884603024E-1,6.189691067E0,-4.641991615E0
1.488145677E1,1.490147352E0,5.263445854E0,-1.377856970E0
1.490122813E1,1.701496363E0,3.720549583E0,2.379832983E0
1.492099782E1,1.405885100E0,1.419794559E0,5.716911793E0
1.494076917E1,2.298072815E0,-1.360021591E0,7.741856575E0
1.496053896E1,2.897822142E0,-3.473957062E0,7.262305260E0
1.498031021E1,3.359398842E0,-4.011184692E0,4.924501896E0
1.500007995E1,6.356663704E-1,-1.526554108E0,2.235575676E0
1.501985125E1,-2.620175362E0,1.684092045E0,3.487149715E0
1.503962099E1,-1.104695797E0,-3.239345551E-2,7.438875675E0
1.505939235E1,6.016532183E-1,-9.539837837E0,4.524432182E0
1.507916214E1,-2.544314861E0,-1.424392891E1,-7.574383736E0
1.509893339E1,6.652466297E0,1.521814346E0,-1.344099808E1
1.511870313E1,1.879151535E1,1.035114861E1,-6.375266075E0
1.513847448E1,7.618855238E-1,4.084667206E0,1.764174938E0
1.515824417E1,-1.134810829E1,-1.051671791E1,-1.998060989E1
1.517801552E1,-7.198396683E0,-1.194206333E1,5.638194084E-1
1.519778526E1,-1.315415859E0,-5.359514236E0,5.844160080E0
1.521755662E1,-8.859533072E-1,3.102979660E0,-2.460959196E0
1.523732636E1,1.299397469E0,5.916715622E0,-2.559081316E0
1.525709771E1,3.043578148E0,4.829043388E0,1.713745117E0
1.527686750E1,-3.851217926E-1,3.589530945E0,9.162592888E-1
1.529663875E1,-4.225142956E0,6.433010101E-1,-1.042841196E0
1.531640849E1,-2.080781460E0,-1.261518478E0,3.330835402E-1
1.533617985E1,-2.384929359E-1,-6.256008148E-1,2.168450117E0
1.535594959E1,4.160664082E-1,1.443717003E0,2.786941767E0
1.537572094E1,1.520077229E0,2.944588184E0,2.867089510E0
1.539549068E1,-3.963428140E-1,4.005830765E0,2.098927021E0
1.541526203E1,-2.652681589E0,2.910690308E0,2.243177652E0
1.543503188E1,-2.833428383E0,1.911363602E-1,8.233557940E-1
1.545480313E1,-1.156204820E0,-1.806621552E-1,2.980396986E0
1.547457297E1,-1.368803978E-1,-2.002553940E-1,5.760625839E0
1.549434427E1,-1.587449074E0,-7.673244476E-1,6.784194946E0
1.551411401E1,-7.661110163E-1,-1.772525787E0,6.346960068E0
1.553388537E1,-1.472319722E0,-1.637447357E0,4.535678864E0
1.555365511E1,-4.651672363E0,-2.934335709E0,3.455755711E0
1.557342646E1,-4.465775490E0,-5.798084259E0,4.490316868E0
1.559319631E1,-1.219375014E0,-4.844766617E0,4.443720818E0
1.561296761E1,3.924444914E-1,-3.879581451E0,3.890745878E0
1.563273735E1,-2.118885279E0,-4.414655685E0,9.758509398E-1
1.565250870E1,-3.998372555E0,-7.280422211E0,-2.259384155E0
1.567227855E1,4.218466759E0,-7.793374062E0,-4.975298882E0
1.569204985E1,1.196412277E1,-7.886136055E0,-2.943473101E0
1.571181959E1,8.732362747E0,-9.171771049E0,-4.735887051E0
1.573159094E1,2.549077034E0,-1.062213802E1,-3.950244427E0
1.575136078E1,-3.664831400E0,-7.812058449E0,-1.089606047E0
1.577113209E1,-1.302437186E-1,-5.696363449E0,-1.601731181E0
1.579090193E1,2.475751638E0,-3.069271088E0,-4.428697109E0
1.581067323E1,2.451298475E0,1.627328873E0,-6.452357292E0
1.583044297E1,3.100721359E0,6.057854176E0,-8.560697556E0
1.585021438E1,3.791228294E0,9.416902542E0,-7.624730110E0
1.586998412E1,2.686596155E0,1.092541599E1,-6.566132545E0
1.588975547E1,1.478419662E0,9.449578285E0,-5.469701767E0
1.590952526E1,6.360733509E-1,6.801836967E0,-5.648138046E0
1.592929662E1,-1.092626333E0,5.568625450E0,-6.009790421E0
1.594906641E1,-2.628226280E0,5.380340099E0,-6.479190826E0
1.596883776E1,-1.852407455E0,6.023132324E0,-5.703077793E0
1.598860761E1,-8.749742508E-1,5.637313366E0,-2.897508383E0
1.600837891E1,-5.458573699E-1,3.071578979E0,2.242350578E0
1.602814875E1,-5.135896206E-1,8.473396301E-3,8.088318825E0
1.604792006E1,1.275436401E0,-1.662018776E0,1.178919601E1
1.606768990E1,3.219012260E0,-3.219531059E0,1.117754269E1
1.608746120E1,1.868163347E0,-4.766360283E0,8.430396080E0
1.610723105E1,5.724287033E-2,-5.406401634E0,5.446591377E-1
1.612700235E1,2.130832672E-1,-5.701045990E-1,1.433239460E0
1.614677219E1,4.431131363E0,5.519428253E0,5.528556347E0
1.616654349E1,1.006344032E1,-8.598785400E-1,-3.647547007E0
1.618631334E1,1.468119526E1,-1.142529678E1,-1.446470737E1
1.620608464E1,1.939322948E-1,-1.479644108E1,7.819740772E0
1.622585448E1,-9.418352127E0,-5.907058716E-1,-1.849314690E1
1.624562578E1,-3.927015781E0,6.263052464E0,-3.316952467E0
1.626539558E1,-4.351502419E0,1.396561623E0,-1.075683784E1
1.628516698E1,-2.606421471E0,-4.681789398E0,-1.733225107E0
1.630493672E1,-3.553444147E-1,-7.383014679E0,-1.160636425E0
1.632470813E1,1.503382921E0,-2.188475609E0,-1.864627481E0
1.634447787E1,2.871438742E0,3.126230240E0,-2.922383547E-1
1.636424927E1,1.766749740E0,5.996792793E0,-5.630062222E-1
1.638401901E1,8.653358221E-1,5.868170261E0,-6.275825500E-1
1.640379042E1,-1.459907770E0,1.307343483E0,-9.574388266E-1
1.642356016E1,-3.720506907E0,7.005100250E-1,-2.021822333E-2
1.644333157E1,-2.249493122E0,4.578781128E-2,8.639569879E-1
1.646310141E1,-1.697228789E0,-1.433563232E-2,2.110544682E0
1.648287271E1,-8.225264549E-1,1.655378342E0,3.292156458E0
1.650264256E1,-1.366175175E0,4.008331299E-1,3.715309858E0
1.652241386E1,-1.986343145E0,9.421539307E-2,2.759501457E0
1.654218370E1,-5.676711798E-1,1.459695816E0,2.067566872E0
1.656195500E1,1.791266203E0,1.312985420E0,2.593328714E0
1.658172485E1,5.835416317E-1,-4.169979095E-1,4.307579994E0
1.660149615E1,-2.240957260E0,-9.466600418E-1,4.019623756E0
1.662126599E1,-3.056856394E0,-2.027702332E0,4.743133545E0
1.664103730E1,-1.492893934E0,-4.566184998E0,4.015169144E0
1.666080714E1,2.274708271E0,-3.019054413E0,3.232415676E0
1.668057849E1,2.699264288E0,-1.900951385E0,2.546472549E0
1.670034823E1,1.852964878E0,-3.441505432E0,4.727842331E0
1.672011959E1,2.546813488E-1,-3.861599922E0,4.456372261E0
1.673988938E1,-1.148466110E0,-4.736959457E0,3.785687923E0
1.675966078E1,-2.975677490E0,-4.945611000E0,3.098258495E0
1.677943052E1,-7.725380421E0,-3.885374069E0,-1.758620739E0
1.679920193E1,-3.598108530E0,-4.558795929E0,-4.374677181E0
1.681897167E1,6.981619596E-1,-6.373253822E0,-3.128461599E0
1.683874308E1,5.376563072E-1,-7.275911331E0,-2.133745670E0
1.685851282E1,-1.302369714E0,-7.377530098E0,-2.082530022E0
1.687828422E1,-3.435263634E0,-5.493722916E0,-2.617826223E0
1.689805407E1,-2.403976440E0,-4.520237923E0,-2.674611092E0
1.691782537E1,-1.043727636E0,-4.057895660E0,-3.843019962E0
1.693759521E1,6.646205187E-1,-2.456681252E0,-5.494407177E0
1.695736651E1,1.616822481E0,-3.797817230E-2,-5.382251740E0
1.697713636E1,1.563416600E0,2.849285126E0,-6.177907467E0
1.699690766E1,4.690223932E-1,5.676127434E0,-6.464230537E0
1.701667750E1,-3.977330923E-1,7.809649944E0,-6.983549118E0
1.703644881E1,1.622319221E-3,8.568105698E0,-6.792353630E0
1.705621865E1,3.919471502E-1,6.547882557E0,-6.411703110E0
1.707598995E1,4.965837002E-1,4.759258270E0,-5.873826981E0
1.709575980E1,1.157472968E0,4.225176334E0,-4.966014862E0
1.711553110E1,1.626033902E0,4.804792404E0,-3.800703764E0
1.713530094E1,2.024287939E0,4.417068481E0,-1.697150707E0
1.715507224E1,1.106705785E0,4.017266273E0,1.295377254E0
1.717484209E1,-4.475488663E-1,2.643583775E0,5.136190414E0
1.719461339E1,-1.789429545E0,-4.227523804E-1,1.166460896E1
1.721438323E1,-1.159217715E0,-8.968789101E0,1.528729725E1
1.723415453E1,-2.699441433E0,-1.195936298E1,4.928920746E0
1.725392438E1,-3.021372318E0,-3.535606384E0,6.864795208E0
1.727369568E1,-4.165788174E0,5.623740196E0,5.259271622E0
1.729346547E1,-1.844919443E0,6.740336418E0,-5.245995045E0
1.731323683E1,6.677615166E0,3.747332573E0,-1.823033333E1
1.733300662E1,1.282317638E1,-1.078535080E1,4.685648918E0
1.735277797E1,1.256913185E0,-2.129962540E1,-3.368299961E0
1.737254782E1,-3.241515398E0,3.685353279E0,-1.344632530E1
1.739231912E1,3.508986235E0,6.669866562E0,2.125739574E0
1.741208896E1,-9.572378159E0,3.294454098E0,-9.898567200E0
1.743186026E1,-4.652041912E0,-6.100707054E0,-2.592790127E0
1.745163011E1,-1.434837103E0,-9.215670586E0,-2.588360310E0
1.747140141E1,-4.542455673E-1,-4.330691338E0,-2.073962688E0
1.749117125E1,2.400722504E0,2.250694275E0,-3.429354429E-1
1.751094256E1,3.077738762E0,5.230879307E0,-2.161969543E-1
1.753071240E1,1.313098192E0,5.270917892E0,-1.658527255E-1
1.755048370E1,-2.632993221E0,3.988351822E0,-1.108546138E0
1.757025354E1,-3.738056660E0,1.497250557E0,-3.686682582E-1
1.759002485E1,-2.973086357E0,3.442258835E-1,9.477130175E-1
1.760979459E1,-1.711083174E0,8.043889999E-1,1.619117498E0
1.762956599E1,-1.452057838E0,2.530239582E0,2.424274206E0
1.764933573E1,-1.156566143E0,3.287138939E0,1.408902884E0
1.766910714E1,-2.577736378E-1,2.600165367E0,1.161711454E0
1.768887688E1,8.850336075E-2,-8.111953735E-1,1.424254417E0
1.770864823E1,-6.439516544E-1,-2.053894997E0,3.441982269E0
1.772841802E1,-5.800977945E-1,-1.464994431E0,3.334111214E0
1.774818938E1,-4.010915756E-3,-2.520017624E-1,3.725766182E0
1.776795917E1,-7.595064640E-1,-1.820265770E0,4.596550941E0
1.778773052E1,-2.565803051E0,-3.522169113E0,4.407479286E0
1.780750037E1,-3.233399391E0,-3.177543640E0,2.504394531E0
1.782727167E1,-2.272740364E0,-4.185989380E0,3.369992018E0
1.784704151E1,-7.714843750E-1,-3.598518372E0,4.924540520E0
1.786681282E1,4.459426403E-1,-6.112300873E0,3.621162891E0
1.788658256E1,-3.412179232E0,-7.246777534E0,2.975320339E0
1.790635396E1,-4.392601967E0,-4.473818779E0,1.680826664E0
1.792612370E1,-8.360680342E-1,-2.999906540E0,-1.727937818E0
1.794589511E1,2.370751619E0,-1.310241699E0,-2.995182991E0
1.796566485E1,6.897764206E-1,-3.750542641E0,-3.602695704E0
1.798543620E1,-2.243872881E0,-4.180271149E0,-3.849962711E0
1.800520604E1,-2.333938360E0,-7.260199547E0,-3.826020002E0
1.802497735E1,-2.118656874E0,-7.677160263E0,-3.188187361E0
1.804474719E1,5.991170406E-1,-4.824089050E0,-1.870791435E0
1.806451849E1,3.598152399E0,-3.286669731E0,-2.638072729E0
1.808428834E1,1.775202870E0,-2.677470207E0,-2.672187090E0
1.810405964E1,-2.683346570E-1,-8.752527237E-1,-3.241555214E0
1.812382938E1,9.954244494E-1,1.959378242E0,-4.264140606E0
1.814360078E1,3.144836187E0,4.672934532E0,-5.344267368E0
1.816337052E1,3.761139154E0,3.912243843E0,-6.876573086E0
1.818314188E1,2.878550053E0,2.130600929E0,-7.550012589E0
1.820291172E1,2.800413370E0,2.427089214E0,-5.463721752E0
1.822268302E1,2.028712988E0,4.106248856E0,-3.072964430E0
1.824245287E1,2.427175999E0,6.039540291E0,-5.835016966E-1
1.826222417E1,2.619754314E0,7.534467697E0,4.894955158E-1
1.828199391E1,3.033382893E0,1.921894073E0,-1.321945906E0
1.830176532E1,8.975921273E-1,2.106475830E-2,-1.451183677E0
1.832153506E1,1.313651800E-1,5.562438965E-1,1.219897270E0
1.834130641E1,-5.032013655E-1,-1.211321831E0,5.357210636E0
1.836107625E1,-2.918735981E0,-5.663328171E-1,7.446414948E0
1.838084756E1,-3.384295464E0,-3.756561279E-1,4.103288174E0
1.840061730E1,-1.617208481E0,-2.051856995E0,1.515858173E-1
1.842038870E1,-1.069148540E0,-4.602605820E0,1.185486078E0
1.844015844E1,-7.262842655E-1,-4.866788864E0,2.215405464E0
1.845992980E1,-2.510776281E0,-1.152997017E0,3.754186630E0
1.847969964E1,-8.207111359E-1,-3.457950592E0,-1.759757757E0
1.849947094E1,1.509760976E0,-3.570500374E0,1.740459204E-1
1.851924068E1,5.019098759E0,-1.620240211E0,-5.238498688E0
1.853901203E1,3.759880066E0,-3.762400627E0,-8.291147232E0
1.855878188E1,1.226531148E0,-5.062100410E0,2.007687330E0
1.857855318E1,-2.720477879E-1,-3.618393898E0,5.490427494E0
1.859832292E1,-1.428187966E0,2.727027893E0,1.926684380E-2
1.861809433E1,-2.110633850E-1,5.272985458E0,1.029059029E1
1.863786412E1,-1.259257793E0,5.896215439E-1,5.423849583E0
1.865763542E1,-1.691696405E0,-4.779415131E0,5.300976038E-1
1.867740516E1,-3.737494230E0,-3.987154007E0,-1.824953079E0
1.869717657E1,-5.625560760E0,-1.810958862E0,-2.483448505E0
1.871694630E1,-6.850008488E0,5.254592896E-1,-4.385798454E0
1.873671766E1,-8.223341942E0,1.859015465E0,-5.848737359E-1
1.875648740E1,-8.153375626E0,1.708428860E0,4.058327198E0
1.877625875E1,-7.811900139E0,2.677927971E0,4.152149677E0
1.879602860E1,-6.122951031E0,2.220712662E0,7.094608307E0
1.881579990E1,-3.923773289E0,3.498315811E-1,7.618613243E0
1.883556964E1,-2.047406197E0,-1.429040909E0,2.331962585E0
1.885534099E1,-5.194535255E-1,-3.325016975E0,-6.187353134E-1
1.887511073E1,8.095254898E0,-4.047830582E0,-1.482614636E0
1.889488214E1,9.142512321E0,-3.606104374E0,-4.817095757E0
1.891465193E1,1.364658356E0,-2.413482189E0,-6.512441158E0
1.893442323E1,-3.152990341E0,-2.820840359E0,-8.985297203E0
1.895419297E1,-6.491611004E0,-7.278571129E-1,-8.203095436E0
1.897396433E1,-6.316180706E0,5.548071861E-1,-5.461697578E0
1.899373407E1,-5.887297630E0,1.783963203E0,-1.164278030E0
1.901350542E1,1.088760853E0,1.123658657E0,1.306896687E0
1.903327526E1,3.021845579E0,5.302748680E-1,1.094696236E1
1.905304657E1,-6.167018414E-1,-3.833423615E0,1.229707527E1
1.907281630E1,1.648665428E0,-5.885742188E0,3.741593838E0
1.909258766E1,4.345398903E0,-5.509354591E0,-4.495138168E0
1.911235740E1,5.108736992E0,-4.481062889E0,-8.539058685E0
1.913212875E1,4.976949692E0,-3.065636158E0,-6.755383968E0
1.915189849E1,3.204215050E0,-9.268474579E-1,-4.266786575E-1
1.917166985E1,1.012858510E0,-7.732930183E-1,4.039009094E0
1.919143959E1,1.563373446E0,-1.995174885E0,5.667058945E0
1.921121094E1,4.670098305E0,-3.509963036E0,2.298973083E0
1.923098068E1,5.570564270E0,-3.679714441E0,-5.021667480E-1
1.925075203E1,5.237540245E0,-4.044384003E0,4.097690582E-1
1.927052177E1,5.419186592E0,-3.071713448E0,-6.768484116E-1
1.929029318E1,3.327263355E0,-2.913552046E0,3.082160950E-1
1.931006297E1,1.759078741E0,-2.592077494E0,-8.725500107E-1
1.932983427E1,2.523134708E0,-3.095560074E0,-1.254512787E0
1.934960407E1,1.609324217E0,-9.981436729E-1,-2.650930405E0
1.936937537E1,7.387952805E-1,-9.291372299E-1,-4.896512985E0
1.938914516E1,-3.070862293E-1,-2.110870838E0,-4.142353058E0
1.940891641E1,-3.676074743E-1,-1.813670158E0,-7.033004761E-1
1.942868625E1,1.252340555E0,-1.514551163E0,-4.800930023E-1
1.944845750E1,1.682362914E0,-1.800513268E0,-1.950446129E0
1.946822735E1,1.818475008E0,-2.011548042E0,-2.101675987E0
1.948799860E1,2.538264751E0,-1.899076939E0,-2.005284309E0
1.950776834E1,1.838879347E0,-8.787255287E-1,-3.765158176E0
1.952753969E1,1.310910702E0,2.433238029E-1,-3.179970264E0
1.954730943E1,1.096059799E0,-1.159272194E-1,-6.994705200E-1
1.956708078E1,9.781916738E-1,-2.510843277E-1,-1.579594612E-1
1.958685052E1,2.506042957E0,-2.323293686E-2,-1.724198818E0
1.960662188E1,2.976591587E0,-4.770088196E-2,-2.182416439E0
1.962639162E1,2.211468697E0,-1.639633179E-1,1.975865364E-1
1.964616297E1,2.267460585E0,-9.609799385E-1,1.508872509E0
1.966593276E1,3.512863517E-1,-1.707038879E-1,1.983522415E0
1.968570401E1,-1.640146375E0,-1.488356590E-1,3.084275723E0
1.970547375E1,-3.035317063E-1,-6.704964638E-1,2.525983810E0
1.972524511E1,9.718912840E-1,3.397464752E-2,6.815700531E-1
1.974501485E1,8.723174334E-1,7.383308411E-1,-3.061366081E-1
1.976478620E1,5.167689919E-1,3.114271164E-1,6.339445114E-1
1.978455594E1,-2.211785078E0,2.121043205E-1,1.697325230E0
1.980432730E1,-5.778809547E0,2.148710251E0,3.450299263E0
1.982409709E1,-1.600762367E0,-1.793642044E-1,-7.995996475E-1
1.984386834E1,-4.241804779E-1,-8.488526344E-1,-1.477241516E0
1.986363808E1,-8.642020226E-1,-8.219041824E-1,-2.621269226E-2
1.988340943E1,-5.476379395E-1,-1.414230824E0,-6.122493744E-2
1.990317917E1,6.545319408E-2,-1.607974529E0,-6.023063660E-1
1.992295052E1,-1.758548379E0,-8.980579376E-1,-7.727851868E-1
1.994272032E1,-3.090693712E0,7.842588425E-2,-1.463825703E0
1.996249157E1,-3.685252964E-1,-5.862631798E-1,-2.329366684E0
1.998226130E1,1.389353514E0,-1.440697193E0,-3.067090034E0
2.000203266E1,8.689418435E-1,-1.032871723E0,-2.065482140E0
2.002180240E1,1.176754117E0,-1.346626282E0,-4.387259483E-1
2.004157375E1,1.154513478E0,-1.289450645E0,-3.530073166E-2
2.006134349E1,1.111716151E0,-9.065866470E-1,-7.758679390E-1
2.008111485E1,1.174365282E0,-4.706120491E-1,-1.648869038E0
2.010088453E1,3.357342184E-1,3.477849960E-1,-2.053132534E0
2.012065589E1,-1.120081306E0,1.446138382E0,-1.433648109E0
2.014042563E1,-2.164478898E-1,9.295606613E-1,-8.549213409E-2
2.016019698E1,1.461182714E0,-3.179121017E-2,6.378321648E-1
2.017996672E1,1.434702396E0,-1.668787003E-2,1.103544712E0
2.019973808E1,1.176026702E0,2.143716812E-1,1.042194366E0
2.021950787E1,7.789502144E-1,6.851463318E-1,8.051285744E-1
2.023927912E1,1.382433772E-1,1.470930099E0,3.853559494E-2
2.025904886E1,8.476562500E-1,9.799466133E-1,2.838926315E-1
2.027882021E1,1.053346515E0,6.827278137E-1,1.680673599E0
2.029858995E1,6.687226295E-1,5.974998474E-1,2.981440544E0
