"Time (s)","Linear Acceleration x (m/s^2)","Linear Acceleration y (m/s^2)","Linear Acceleration z (m/s^2)"
2.410943900E-2,-5.223899841E0,-1.479499936E0,3.305999935E-1
4.394225200E-2,-3.611799955E0,-8.763999939E-1,1.179000020E0
6.379381400E-2,-2.515699863E0,-7.258999944E-1,8.748999834E-1
8.364693900E-2,-9.618999958E-1,-2.339999974E-1,6.757999659E-1
1.035000640E-1,-6.830000132E-2,-7.283999920E-1,-2.779999971E-1
1.233516270E-1,1.596999913E-1,-4.086000025E-1,-1.255999923E0
1.432047520E-1,4.830999970E-1,-5.733000040E-1,-6.688999534E-1
1.630578770E-1,2.861999869E-1,-1.131399989E0,6.979999542E-1
1.829110020E-1,2.461999953E-1,-1.100399971E0,4.105999768E-1
2.027625640E-1,2.340999991E-1,-4.492999911E-1,7.400000002E-3
2.226156890E-1,-7.059999555E-2,2.067999989E-1,-2.315500021E0
2.424672520E-1,-3.409999907E-1,3.612000048E-1,-3.965399981E0
2.623203770E-1,-3.791999817E-1,-5.389999971E-2,-3.281499863E0
2.821735020E-1,-2.879000008E-1,-9.301999807E-1,1.431599975E0
3.020266270E-1,6.659999490E-2,-1.803099990E0,3.306699991E0
3.218781890E-1,1.618999988E-1,-1.740099907E0,1.941999912E0
3.417313140E-1,2.906000018E-1,-1.060899973E0,4.521999955E-1
3.615828770E-1,-1.312000006E-1,-5.200999975E-1,9.469999671E-1
3.814360020E-1,-4.472000003E-1,2.987999916E-1,1.809999943E-1
4.012891270E-1,-5.483999848E-1,9.452999830E-1,6.965999603E-1
4.211406890E-1,2.256999910E-1,8.481999636E-1,6.042000055E-1
4.409938140E-1,3.420999944E-1,-1.021999940E-1,1.292999983E-1
4.608469390E-1,9.031999707E-1,-1.266799927E0,-2.007699966E0
4.806985020E-1,1.099499941E0,-2.738299847E0,-5.539399624E0
5.005516270E-1,5.306999683E-1,-1.245000005E0,-5.920799732E0
5.204047520E-1,-2.678000033E-1,-1.491999924E-1,-1.240599990E0
5.402563140E-1,-1.011799932E0,2.954999804E-1,-1.201699972E0
5.601094390E-1,-6.762999892E-1,2.698999941E-1,-2.966799974E0
5.799625640E-1,-1.265799999E0,-2.466999888E-1,-2.599299908E0
5.998156890E-1,-8.297999501E-1,-8.497999907E-1,-2.228600025E0
6.196672520E-1,-1.034799933E0,-4.860999882E-1,-1.041599989E0
6.395219390E-1,-1.857499957E0,-6.273999810E-1,8.334999681E-1
6.593735020E-1,-2.197700024E0,-1.060799956E0,1.956099987E0
6.792250640E-1,-2.582900047E0,-1.363699913E0,1.605599999E0
6.990781890E-1,-3.028499842E0,-1.851499915E0,9.605000019E-1
7.189313140E-1,-3.558300018E0,-2.196500063E0,1.294600010E0
7.387828770E-1,-3.487200022E0,-2.290599823E0,1.609799981E0
7.586360020E-1,-2.383399963E0,-1.975899935E0,1.575999975E0
7.784891270E-1,-2.987399817E0,-1.893099904E0,2.011800051E0
7.983422520E-1,-3.616999865E0,-1.893899918E0,1.987499952E0
8.181938140E-1,-3.441200018E0,-1.715799928E0,1.547799945E0
8.380531890E-1,-3.190999985E0,-1.525799990E0,1.333599925E0
8.579000640E-1,-2.507499933E0,-1.193899989E0,1.351499915E0
8.777516270E-1,-1.793699980E0,-6.159999967E-1,1.299999952E0
8.976047520E-1,-1.287699938E0,-5.903999805E-1,6.832000017E-1
9.174578770E-1,-1.528999954E-1,-8.434000015E-1,-1.416999996E-1
9.373110020E-1,-1.048000008E-1,-6.439999938E-1,-5.758000016E-1
9.571625640E-1,2.018999904E-1,-2.529000044E-1,-7.441999912E-1
9.770156890E-1,7.615999579E-1,2.393999994E-1,-7.321000099E-1
9.968688140E-1,9.086999893E-1,2.141999900E-1,-9.407999516E-1
1.016720377E0,1.247900009E0,4.493999779E-1,-1.180899978E0
1.036573502E0,1.129799962E0,-6.859999895E-2,-1.458199978E0
1.056426627E0,5.083000064E-1,-6.639999896E-2,-1.670199990E0
1.076278189E0,1.587999910E-1,4.888999760E-1,-1.152199984E0
1.096131314E0,2.425999939E-1,9.636999965E-1,-4.250000045E-2
1.115984439E0,6.680999994E-1,1.300899982E0,4.903999865E-1
1.135836002E0,8.008999825E-1,1.143199921E0,5.546000004E-1
1.155689127E0,7.795999646E-1,4.272999763E-1,-3.393999934E-1
1.175542252E0,1.066999957E-1,-3.064999878E-1,-1.135499954E0
1.195395377E0,-3.960999846E-1,-6.651999950E-1,-1.457299948E0
1.215246939E0,-2.520000041E-1,-6.143000126E-1,-1.009999990E0
1.235100064E0,-5.040000007E-2,-2.302999943E-1,-2.011999935E-1
1.254953189E0,1.579999924E-1,-8.590000123E-2,4.548999965E-1
1.274804752E0,-5.813999772E-1,-1.322199941E0,-4.649999738E-2
1.294657877E0,-1.347299933E0,-1.723500013E0,-4.687999785E-1
1.314511002E0,-1.434299946E0,-1.271299958E0,-3.777999878E-1
1.334364127E0,-9.918999672E-1,-5.185999870E-1,-1.673000008E-1
1.354215689E0,-7.536999583E-1,4.809999838E-2,9.519999474E-2
1.374068814E0,-1.252200007E0,1.608999968E-1,1.528999954E-1
1.393921939E0,-1.504699945E0,-3.865000010E-1,-1.361999959E-1
1.413775064E0,-1.740299940E0,-6.014999747E-1,-2.073999941E-1
1.433626627E0,-2.349699974E0,-4.404999912E-1,-2.310999930E-1
1.453479752E0,-3.396999836E0,-5.903999805E-1,-1.442999989E-1
1.473332877E0,-3.575599909E0,-5.888000131E-1,-3.238999844E-1
1.493184439E0,-2.930500031E0,-7.170999646E-1,-6.098999977E-1
1.513037564E0,-1.995099902E0,-5.697000027E-1,-6.650999784E-1
1.532889127E0,4.999999655E-4,2.644000053E-1,-5.742999911E-1
1.552742252E0,1.701799989E0,7.371000051E-1,-6.474999785E-1
1.572595377E0,2.558399916E0,4.312999845E-1,-1.398299932E0
1.592448502E0,3.149999857E0,9.619999677E-2,-8.937000036E-1
1.612301627E0,4.428199768E0,3.953999877E-1,7.562999725E-1
1.632153189E0,5.180299759E0,2.315700054E0,5.788599968E0
1.652004752E0,3.850499868E0,4.489699841E0,3.692899942E0
1.671857877E0,3.018299818E0,4.073899746E0,6.036999822E-1
1.691711002E0,1.801499963E0,1.075899959E0,-3.515999794E0
1.711564127E0,-3.402999938E-1,-3.325799942E0,-5.579499722E0
1.731415689E0,-7.655000091E-1,-1.648299932E0,1.473399997E0
1.751268814E0,-3.071199894E0,5.656999946E-1,2.813499928E0
1.771121939E0,-2.596099854E0,2.025500059E0,2.497900009E0
1.790973502E0,-7.279999852E-1,3.515399933E0,1.064000010E0
1.810826627E0,1.293799996E0,2.404799938E0,-1.054299951E0
1.830678189E0,5.394999981E-1,1.153200030E0,-1.558099985E0
1.850531314E0,-1.520999968E-1,1.239499927E0,-7.620000094E-2
1.870384439E0,3.198599815E0,4.195999801E-1,5.058199883E0
1.890236002E0,5.377199650E0,-3.782999814E-1,6.790000200E-2
1.910090689E0,4.206900120E0,-2.535300016E0,-8.185999990E-1
1.929942252E0,8.138999939E-1,-2.250799894E0,1.165999994E-1
1.949795377E0,-3.206999898E-1,-1.043900013E0,6.194999814E-1
1.969646939E0,9.984999895E-1,-4.488999844E-1,9.797999859E-1
1.989500064E0,-3.924499989E0,-3.361799955E0,-2.691999912E0
2.009353189E0,-7.369799614E0,-3.635900021E0,-6.363299847E0
2.029206314E0,-3.020299911E0,-2.160699844E0,1.724599957E0
2.049057877E0,-3.133999825E0,-3.114300013E0,2.742899895E0
2.068911002E0,-6.246099949E0,-3.862499952E0,6.171000004E-1
2.088764127E0,-4.767699718E0,-2.846400023E0,1.077700019E0
2.108615689E0,-2.470700026E0,-6.614999771E-1,3.230899811E0
2.128468814E0,-7.429999709E-1,7.348999977E-1,3.498299837E0
2.148321939E0,3.888999820E-1,8.804000020E-1,3.004299879E0
2.168173502E0,8.475999832E-1,-2.291999906E-1,5.466700077E0
2.188026627E0,1.282599926E0,-1.818799973E0,-9.333999753E-1
2.207879752E0,1.673799992E0,-1.033100009E0,-2.621899843E0
2.227732877E0,9.537999630E-1,2.669000030E-1,-2.910899878E0
2.247586002E0,5.072000027E-1,1.758599997E0,-2.886699915E0
2.267437564E0,6.958000064E-1,2.689399958E0,-1.626799941E0
2.287290689E0,1.561100006E0,2.784299850E0,-1.240599990E0
2.307142252E0,2.588199854E0,2.446499825E0,-8.682999611E-1
2.326995377E0,2.461999893E0,1.404199958E0,-3.537999988E-1
2.346848502E0,1.514199972E0,2.709999979E-1,3.066999912E-1
2.366700064E0,2.003999949E-1,1.517999917E-1,2.048999965E-1
2.386553189E0,-1.043900013E0,-7.436000109E-1,-3.333999813E-1
2.406406314E0,-6.820999980E-1,-1.412599921E0,-7.148999572E-1
2.426259439E0,1.299999952E-1,-1.846799970E0,-8.278999925E-1
2.446111002E0,9.644999504E-1,-1.704499960E0,-9.842000008E-1
2.465964127E0,1.480000019E0,-1.207999960E-1,-5.809000134E-1
2.485817252E0,2.067100048E0,1.738299966E0,1.678999960E-1
2.505668814E0,2.798599958E0,2.481400013E0,1.015799999E0
2.525521939E0,3.071300030E0,2.313400030E0,1.493099928E0
2.545375064E0,1.751999974E0,1.190699935E0,2.325099945E0
2.565226627E0,-7.353000045E-1,-4.468999803E-1,1.286899924E0
2.585079752E0,-3.513999939E0,1.492999941E-1,1.080399990E0
2.604932877E0,-5.668099880E0,4.388999939E-1,1.064700007E0
2.624784439E0,-4.798099995E0,1.099599957E0,1.693999916E-1
2.644637564E0,-2.171299934E0,1.661099911E0,-5.965999961E-1
2.664490689E0,-1.165300012E0,-1.461099982E0,-9.635999799E-1
2.684343814E0,-4.954999983E-1,-6.374399662E0,-2.313999891E0
2.704195377E0,2.318199873E0,-3.763199806E0,-5.496399879E0
2.724048502E0,6.363100052E0,-3.984399796E0,-4.809999838E-2
2.743901627E0,8.213099480E0,-3.786000013E0,2.679199934E0
2.763753189E0,7.252999783E0,-2.937599897E0,1.411999911E-1
2.783606314E0,1.240399957E0,-1.918499947E0,-2.542500019E0
2.803459439E0,-2.719899893E0,-1.219900012E0,-4.948699951E0
2.823311002E0,-4.407199860E0,-1.457099915E0,-3.253399849E0
2.843164127E0,-5.109499931E0,6.010999680E-1,4.601999819E-1
2.863017252E0,-4.135200024E0,2.135299921E0,2.595799923E0
2.882870377E0,-2.670500040E0,9.400999546E-1,3.887599945E0
2.902721939E0,-8.219999820E-2,-2.015300035E0,2.462800026E0
2.922575064E0,2.532099962E0,-6.518599987E0,1.542099953E0
2.942428189E0,4.008399963E0,-5.428400040E0,1.829999872E-2
2.962279752E0,3.364399910E0,-1.036499977E0,-1.629400015E0
2.982132877E0,2.361099958E0,1.594399929E0,-1.292599916E0
3.001984439E0,1.058799982E0,2.145099878E0,-4.154999852E-1
3.021837564E0,-5.582999587E-1,1.616099954E0,-5.508999825E-1
3.041690689E0,-1.979799986E0,1.008100033E0,-1.309999943E0
3.061542252E0,-1.958999991E0,-1.727000028E-1,-8.161999583E-1
3.081395377E0,-1.431299925E0,-6.703000069E-1,4.589999914E-1
3.101248502E0,-3.841999769E-1,-8.493999839E-1,2.636899948E0
3.121100064E0,6.455999613E-1,-1.194399953E0,5.153599739E0
3.140953189E0,9.237999916E-1,-2.005499840E0,4.301199913E0
3.160806314E0,3.055000007E-1,-3.388499975E0,2.325999886E-1
3.180657877E0,-2.474400043E0,-4.802499771E0,-4.224999905E0
3.200512564E0,-3.644099951E0,-6.362999916E0,-6.042199612E0
3.220364127E0,-4.679999948E-1,-6.637799740E0,-3.975399971E0
3.240217252E0,4.258500099E0,-5.125400066E0,7.092999816E-1
3.260068814E0,4.898200035E0,-2.900799990E0,2.909999847E0
3.279928189E0,3.160599947E0,-1.613600016E0,1.133099914E0
3.299775064E0,7.161999941E-1,-8.885999918E-1,-1.765999943E-1
3.319626627E0,-1.701200008E0,-3.648999929E-1,-4.644999802E-1
3.339479752E0,-2.157799959E0,4.708999991E-1,-5.814999938E-1
3.359332877E0,-1.134299994E0,9.517999887E-1,-9.279999882E-2
3.379184439E0,-1.118999943E-1,1.503899932E0,5.269999802E-2
3.399037564E0,2.462399960E0,2.920999825E-1,1.877999902E-1
3.418890689E0,1.505999923E0,6.384999752E-1,2.592999935E-1
3.438743814E0,3.290999830E-1,6.268000007E-1,1.989999972E-2
3.458595377E0,-9.570999742E-1,1.987999976E-1,-1.139999926E-2
3.478448502E0,-1.531099916E0,-2.132999897E-1,5.370999575E-1
3.498301627E0,-1.490099907E0,-3.317999840E-1,7.141000032E-1
3.518153189E0,-7.957999706E-1,-3.400000036E-1,9.710999727E-1
3.538006314E0,1.273999959E-1,4.666999876E-1,9.853999615E-1
3.557859439E0,1.079499960E0,1.409899950E0,8.272999525E-1
3.577712564E0,1.241500020E0,2.431299925E0,3.470000029E-1
3.597564127E0,5.214999914E-1,3.306699991E0,-2.707999945E-1
3.617417252E0,-5.963999629E-1,3.822299957E0,-8.087999821E-1
3.637270377E0,-1.527499914E0,4.309999943E0,-1.171499968E0
3.657121939E0,-1.782199979E0,4.452899933E0,-1.249499917E0
3.676975064E0,-1.948399901E0,4.461999893E0,-9.458999634E-1
3.696828189E0,-1.679999948E0,3.962699890E0,-1.957999915E-1
3.716679752E0,-1.221199989E0,2.322099924E0,5.618999600E-1
3.736532877E0,-6.439999938E-1,-5.270000100E-1,3.136299849E0
3.756386002E0,-2.917999923E-1,-3.066099882E0,6.158599854E0
3.776237564E0,-4.493999779E-1,-3.659499884E0,5.520899773E0
3.796090689E0,-4.359999895E-1,-3.847399950E0,4.096300125E0
3.815943814E0,1.477800012E0,-9.283599854E0,1.604099989E0
3.835796939E0,2.161499977E0,-1.243729973E1,-6.350100040E0
3.855648502E0,-2.785699844E0,-6.016999722E0,-8.611599922E0
3.875501627E0,1.669099927E0,-6.110000014E-1,-8.571599960E0
3.895354752E0,4.954099655E0,9.095000029E-1,-3.315199852E0
3.915206314E0,4.392399788E0,-3.482999802E-1,-1.212800026E0
3.935059439E0,2.431200027E0,-3.233500004E0,-8.143000007E-1
3.954912564E0,-1.648399949E0,-4.378200054E0,5.079999939E-2
3.974770377E0,-4.087599754E0,-3.033599854E0,7.342000008E-1
3.994617252E0,-3.442399979E0,-1.254499912E0,9.948999882E-1
4.014470377E0,-1.061800003E0,1.099999994E-1,1.751099944E0
4.034323502E0,2.065799952E0,1.700599909E0,2.998699903E0
4.054175064E0,3.941499949E0,2.492499828E0,2.706499815E0
4.074028189E0,3.003599882E0,2.018800020E0,1.708499908E0
4.093879752E0,1.068300009E0,4.884999990E-1,3.339999914E-2
4.113732877E0,-2.085799932E0,-1.093899965E0,-1.912099957E0
4.133586002E0,-3.238799810E0,-1.260999918E0,-2.195999861E0
4.153437564E0,-2.744299889E0,-1.088199973E0,-2.355299950E0
4.173290689E0,-2.150899887E0,-9.444999695E-1,-2.004099846E0
4.193143814E0,-1.799699903E0,-7.125999928E-1,1.349999942E-2
4.212996939E0,-1.187600017E0,-5.512999892E-1,1.493299961E0
4.232848502E0,-5.464999676E-1,-4.289999902E-1,3.032699823E0
4.252701627E0,1.758999974E-1,-7.059999704E-1,3.514699936E0
4.272554752E0,8.506999612E-1,-8.932999969E-1,1.437899947E0
4.292406314E0,1.056900024E0,-8.215999603E-1,-1.170099974E0
4.312259439E0,9.386000037E-1,-6.269999743E-1,-2.339499950E0
4.332111002E0,9.817000031E-1,-1.446999907E-1,-1.698300004E0
4.351964127E0,1.526799917E0,-1.172999963E-1,-5.133000016E-1
4.371817252E0,1.808599949E0,-1.529999916E-2,1.090600014E0
4.391668814E0,2.488399982E0,-6.669999659E-2,1.503999949E0
4.411521939E0,1.864899993E0,4.561999738E-1,1.570500016E0
4.431375064E0,1.247699976E0,-3.660999835E-1,6.642999649E-1
4.451228189E0,-2.960000038E-1,-2.856699944E0,-7.020999789E-1
4.471079752E0,-2.787699938E0,-3.550599813E0,-2.242699862E0
4.490932877E0,-2.838999987E0,-4.363899708E0,-1.991099954E0
4.510786002E0,-1.137199998E0,-5.011799812E0,-1.106799960E0
4.530637564E0,1.933899999E0,-3.347100019E0,5.920000002E-2
4.550490689E0,3.205499887E0,-3.526099920E0,8.913999796E-1
4.570343814E0,2.693500042E0,-5.236000061E0,3.655000031E-1
4.590196939E0,6.344000101E-1,-5.418299675E0,-4.178999960E-1
4.610048502E0,-1.721699953E0,-3.261999846E0,-6.626999974E-1
4.629901627E0,-3.431699991E0,-1.195500016E0,-7.339999825E-2
4.649754752E0,-1.947199941E0,-3.562999964E-1,1.398100019E0
4.669612564E0,1.515000015E-1,-2.366999984E-1,9.971999526E-1
4.689459439E0,1.396799922E0,-1.102999970E-1,-2.228000015E-1
4.709312564E0,1.739099979E0,3.691999912E-1,-1.453199983E0
4.729164127E0,1.144599915E0,1.131699920E0,-1.154699922E0
4.749017252E0,6.437000036E-1,1.774899960E0,-4.360999763E-1
4.768870377E0,1.840000004E-1,2.339099884E0,6.019999981E-1
4.788723502E0,-1.810999960E-1,2.650699854E0,1.212099910E0
4.808575064E0,-6.219999790E-1,3.474399805E0,9.251999855E-1
4.828428189E0,-1.059000015E0,4.722099781E0,8.653999567E-1
4.848281314E0,-1.525299907E0,5.404500008E0,7.364000082E-1
4.868132877E0,-1.828099966E0,5.536399841E0,4.910999835E-1
4.887986002E0,-1.706699967E0,4.782599926E0,1.377999932E-1
4.907839127E0,-1.196599960E0,2.794399977E0,3.057000041E-1
4.927690689E0,-2.656999826E-1,6.276999712E-1,1.607100010E0
4.947543814E0,3.283999860E-1,-9.111999869E-1,1.784500003E0
4.967396939E0,-2.063999921E-1,-1.911599994E0,2.481199980E0
4.987250064E0,-6.694999933E-1,-2.897399902E0,2.018300056E0
5.007107877E0,1.623699903E0,-6.589599609E0,-4.559999704E-2
5.026954752E0,4.232899666E0,-1.537500000E1,-5.758899689E0
5.046807877E0,3.368299961E0,-1.386389923E1,-5.661099911E0
5.066659439E0,1.106099963E0,-2.251999855E0,-4.717199802E0
5.086512564E0,4.924999774E-1,4.158299923E0,-3.262099981E0
5.106365689E0,-8.107999563E-1,4.712299824E0,-2.855000019E0
5.126217252E0,-7.437999845E-1,1.992299914E0,-1.970099926E0
5.146070377E0,-5.478000045E-1,-1.478799939E0,-1.966999918E-1
5.165923502E0,-9.050999880E-1,-2.617499828E0,1.098699927E0
5.185776627E0,-1.063300014E0,-1.734200001E0,1.363699913E0
5.205628189E0,-5.699999928E-1,-6.367999911E-1,1.475600004E0
5.225481314E0,3.434000015E-1,1.105000004E-1,2.736299992E0
5.245334439E0,1.297500014E0,-3.120000064E-1,4.118799686E0
5.265186002E0,1.405900002E0,-1.292400002E0,4.872299671E0
5.285039127E0,6.826999784E-1,-1.847499967E0,2.518899918E0
5.304892252E0,-8.935999870E-1,-1.673099995E0,-4.734999835E-1
5.324745377E0,-1.630199909E0,-1.259899974E0,-2.515100002E0
5.344596939E0,-1.852099895E0,-8.536999822E-1,-3.134299994E0
5.364454752E0,-1.259400010E0,-5.296999812E-1,-2.753299952E0
5.384303189E0,-7.103999853E-1,-7.669999599E-1,-1.558699965E0
5.404154752E0,4.373999834E-1,-1.020699978E0,-5.248999596E-1
5.424007877E0,1.449899912E0,-4.846999943E-1,7.174999714E-1
5.443859439E0,1.674600005E0,3.199999928E-1,1.981499910E0
5.463712564E0,2.052700043E0,5.992999673E-1,2.753899813E0
5.483565689E0,1.764299989E0,1.014599919E0,2.568899870E0
5.503417252E0,1.146799922E0,6.651999950E-1,1.151899934E0
5.523270377E0,-2.737999856E-1,7.419999689E-2,6.775999665E-1
5.543123502E0,-3.538999856E-1,-1.350700021E0,4.736000001E-1
5.562976627E0,6.298999786E-1,-1.196799994E0,1.230700016E0
5.582829752E0,7.970000058E-2,-6.768000126E-1,1.496699929E0
5.602681314E0,-1.569399953E0,-2.349900007E0,-6.132000089E-1
5.622534439E0,-4.194099903E0,-4.744199753E0,-2.797199965E0
5.642386002E0,-5.452799797E0,-6.935899734E0,-2.887099981E0
5.662239127E0,-2.639400005E0,-9.090899467E0,-1.011099935E0
5.682090689E0,1.797899961E0,-8.996899605E0,1.435000002E-1
5.701945377E0,2.421099901E0,-8.215099335E0,-1.982499957E0
5.721796939E0,1.576599956E0,-6.280099869E0,-1.871599913E0
5.741650064E0,-1.265499949E0,-2.947199821E0,8.709999919E-2
5.761501627E0,-2.485999823E0,-1.516000032E-1,7.542999983E-1
5.781354752E0,-1.519099951E0,8.776999712E-1,2.721199989E0
5.801207877E0,-7.509999722E-2,7.462999821E-1,1.398999929E0
5.821059439E0,8.750999570E-1,3.619000018E-1,-6.818000078E-1
5.840912564E0,1.400900006E0,3.709999919E-1,-1.860199928E0
5.860765689E0,1.242399931E0,1.078599930E0,-2.100999832E0
5.880617252E0,1.118899941E0,1.795699954E0,-1.199299932E0
5.900470377E0,1.062699914E0,2.109099865E0,1.880999953E-1
5.920323502E0,1.061800003E0,1.958299994E0,1.616799951E0
5.940176627E0,1.210299969E0,2.017799854E0,2.743199825E0
5.960028189E0,1.169700027E0,2.402199984E0,2.909899950E0
5.979881314E0,8.003000021E-1,2.973899841E0,2.160599947E0
5.999734439E0,-2.011999935E-1,2.680599928E0,9.086999893E-1
6.019586002E0,-1.221599936E0,2.047399998E0,-5.573999882E-1
6.039439127E0,-1.904399991E0,1.430699944E0,-1.180799961E0
6.059296939E0,-2.200199842E0,1.142199993E0,-1.436900020E0
6.079145377E0,-1.541999936E0,1.373099923E0,-1.193099976E0
6.098996939E0,-1.041299939E0,1.663499951E0,-3.916999996E-1
6.118850064E0,-1.042500019E0,1.936100006E0,4.512999952E-1
6.138703189E0,-1.192899942E0,1.699199915E0,1.264500022E0
6.158554752E0,-1.431800008E0,5.550000072E-1,2.721499920E0
6.178407877E0,-2.128999949E0,-7.882999778E-1,3.839399815E0
6.198261002E0,-3.815399885E0,-1.571900010E0,2.659799814E0
6.218112564E0,-3.260599852E0,-2.563799858E0,2.398999929E-1
6.237965689E0,-4.421999753E-1,-1.068209934E1,8.036199570E0
6.257818814E0,-2.426999956E-1,-1.678940010E1,-6.282799721E0
6.277671939E0,2.866400003E0,-2.328999996E0,-1.203959942E1
6.297523502E0,6.973899841E0,5.997699738E0,-2.265699863E0
6.317376627E0,9.063199997E0,6.433300018E0,1.488899946E0
6.337229752E0,6.751699924E0,2.277799845E0,-2.356199980E0
6.357081314E0,1.747999936E-1,-2.162699938E0,-3.622099876E0
6.376934439E0,-3.708299875E0,-3.325500011E0,-2.558199883E0
6.396787564E0,-3.972599983E0,-3.086799860E0,-2.603999972E-1
6.416640689E0,-3.693399906E0,-3.776000023E0,3.486799955E0
6.436492252E0,-3.987799883E0,-4.947499752E0,4.199199677E0
6.456345377E0,-4.453899860E0,-4.333399773E0,3.268800020E0
6.476196939E0,-3.360499859E0,-1.492399931E0,5.740999579E-1
6.496050064E0,-6.638999581E-1,7.146999836E-1,-1.140999943E-1
6.515903189E0,8.730999827E-1,1.864499927E0,2.570999861E-1
6.535762564E0,1.479399920E0,1.246599913E0,2.025000006E-1
6.555607877E0,1.774500012E0,2.229999937E-2,-7.042999864E-1
6.575461002E0,1.509699941E0,-5.755999684E-1,-2.198699951E0
6.595314127E0,1.233099937E0,-3.659999967E-1,-1.902599931E0
6.615165689E0,9.652999640E-1,2.773000002E-1,-6.897999644E-1
6.635018814E0,1.068799973E0,4.309999943E-1,1.745999902E-1
6.654871939E0,1.678200006E0,-3.380999863E-1,1.049700022E0
6.674729752E0,2.090899944E0,-1.475099921E0,1.852699995E0
6.694576627E0,1.746500015E0,-1.510999918E0,4.316599846E0
6.714429752E0,9.254999757E-1,-8.233000040E-1,5.655099869E0
6.734281314E0,-6.304000020E-1,-3.856000006E-1,3.024999857E0
6.754140689E0,-1.905499935E0,-1.360899925E0,-1.729499936E0
6.773987564E0,-2.340800047E0,-4.457099915E0,-5.417399883E0
6.793839127E0,-3.594099998E0,-6.581699848E0,-6.452899933E0
6.813692252E0,-2.648900032E0,-7.194999695E0,-5.539399624E0
6.833543814E0,8.041999936E-1,-4.932399750E0,-1.690299988E0
6.853396939E0,4.832399845E0,-2.882200003E0,2.269899845E0
6.873250064E0,5.943899632E0,-2.217200041E0,2.568099976E0
6.893103189E0,4.169399738E0,-2.769500017E0,2.012500048E0
6.912954752E0,2.253200054E0,-4.363100052E0,3.077999949E-1
6.932807877E0,-3.594999909E-1,-2.882900000E0,-6.644999981E-1
6.952661002E0,-2.066499949E0,-5.048999786E-1,-1.628600001E0
6.972514127E0,-1.970899940E0,5.379999802E-2,-7.034999728E-1
6.992365689E0,-4.805999994E-1,3.170000017E-2,3.014999926E-1
7.012218814E0,1.538999975E-1,5.697999597E-1,4.214999974E-1
7.032070377E0,5.009999871E-2,8.908999562E-1,-1.017999947E-1
7.051923502E0,-3.477999866E-1,1.029299974E0,-1.755999923E-1
7.071776627E0,-1.023699999E0,1.089900017E0,6.870000064E-2
7.091629752E0,-6.273999810E-1,1.115399957E0,7.400000095E-1
7.111481314E0,-4.891999960E-1,1.560499907E0,1.354099989E0
7.131334439E0,6.359999776E-1,1.952799916E0,1.707499981E0
7.151187564E0,1.042799950E0,3.140599966E0,1.154699922E0
7.171039127E0,5.430999994E-1,4.503699780E0,4.359999895E-1
7.190892252E0,-2.728999853E-1,5.053599834E0,-5.992999673E-1
7.210745377E0,-1.282899976E0,4.690599918E0,-1.191100001E0
7.230598502E0,-2.335799932E0,3.899299860E0,-1.405599952E0
7.250450064E0,-2.734899998E0,3.156999826E0,-1.372299910E0
7.270303189E0,-2.668299913E0,2.803499937E0,-1.164499998E0
7.290156314E0,-1.662099957E0,2.373699903E0,-5.697999597E-1
7.310007877E0,-4.731999934E-1,1.489899993E0,6.139999628E-1
7.329861002E0,2.666999996E-1,-2.933000028E-1,2.741499901E0
7.349714127E0,2.245199919E0,-5.241399765E0,9.069700241E0
7.369565689E0,7.508199692E0,-1.679119873E1,3.670799971E0
7.389418814E0,3.724900007E0,-2.238329887E1,-6.341499805E0
7.409271939E0,-2.797399998E0,-6.849799633E0,-9.120800018E0
7.429125064E0,-3.396699905E0,3.992399931E0,-8.517299652E0
7.448982877E0,-9.906999469E-1,7.633399963E0,-3.798599958E0
7.468829752E0,2.230200052E0,3.626699924E0,-1.637300014E0
7.488682877E0,2.442399979E0,-2.492300034E0,8.096999526E-1
7.508534439E0,-5.041999817E-1,-6.303799629E0,1.741400003E0
7.528387564E0,-1.531000018E0,-6.417699814E0,1.517099977E0
7.548240689E0,-1.574499965E0,-3.965799809E0,1.199999928E0
7.568092252E0,-1.649399996E0,-1.198199987E0,4.994999766E-1
7.587945377E0,-8.409999609E-1,8.290999532E-1,2.730700016E0
7.607798502E0,6.354999542E-1,1.261899948E0,3.227499962E0
7.627651627E0,1.452099919E0,1.037599921E0,2.098399878E0
7.647509439E0,1.034299970E0,8.185999990E-1,-1.070000008E-1
7.667356314E0,8.899999410E-2,3.194999993E-1,-2.202199936E0
7.687209439E0,-8.772999644E-1,-2.612999976E-1,-3.368199825E0
7.707061002E0,-9.740999937E-1,-2.137999982E-1,-2.595999956E0
7.726914127E0,-1.133499980E0,2.123999894E-1,-7.448999882E-1
7.746767252E0,-1.287799954E0,1.926999986E-1,1.307899952E0
7.766620377E0,-1.238299966E0,-4.699999932E-3,2.449100018E0
7.786471939E0,-2.431999892E-1,-1.108999997E-1,1.695500016E0
7.806325064E0,1.338699937E0,1.474999934E-1,8.470000029E-1
7.826178189E0,2.295399904E0,7.626999617E-1,1.431999952E-1
7.846029752E0,2.701599836E0,1.467199922E0,-1.101999953E-1
7.865882877E0,1.837299943E0,1.343899965E0,6.751999855E-1
7.885736002E0,1.160999984E-1,4.064999819E-1,9.623000026E-1
7.905587564E0,-7.208999991E-1,-6.189999580E-1,4.878999889E-1
7.925440689E0,-6.879999489E-2,-1.042199969E0,2.903999984E-1
7.945293814E0,1.393599987E0,-5.277999640E-1,7.599999905E-1
7.965145377E0,2.235399961E0,-1.031999961E-1,1.403599977E0
7.984998502E0,5.954999924E-1,-1.604599953E0,9.145999551E-1
8.004851627E0,-3.017699957E0,-5.399300098E0,-1.748600006E0
8.024709439E0,-6.904599667E0,-8.534399986E0,-4.066999912E0
8.044556314E0,-4.516200066E0,-1.063029957E1,-3.993899822E0
8.064409439E0,2.436499834E0,-9.958000183E0,-2.565500021E0
8.084262564E0,5.419099808E0,-7.781399727E0,-1.453899980E0
8.104114127E0,4.230700016E0,-6.851099968E0,1.307999939E-1
8.123967252E0,3.231000006E-1,-4.703000069E0,1.245499969E0
8.143826627E0,-1.062299967E0,-2.688499928E0,1.156000018E0
8.163671939E0,-1.355000019E0,-7.100999951E-1,7.267999649E-1
8.183525064E0,-2.817299843E0,-6.689999998E-2,1.663100004E0
8.203378189E0,-1.738199949E0,2.167999893E-1,8.852999806E-1
8.223229752E0,-3.800999820E-1,7.305999994E-1,-7.657999992E-1
8.243082877E0,1.383999944E0,2.086999893E0,-1.945499897E0
8.262936002E0,2.128900051E0,3.053200006E0,-2.126899958E0
8.282787564E0,1.820599914E0,3.971699953E0,-8.294000030E-1
8.302640689E0,7.611999512E-1,3.702199936E0,1.055799961E0
8.322493814E0,-1.499999966E-2,2.810899973E0,1.942499995E0
8.342345377E0,-8.371999860E-1,2.486799955E0,2.221299887E0
8.362200064E0,-6.527000070E-1,2.511600018E0,2.131000042E0
8.382050064E0,-5.174999833E-1,2.637300014E0,1.716599941E0
8.401904752E0,-6.338999867E-1,2.537400007E0,1.587199926E0
8.421756314E0,-7.336999774E-1,1.900499940E0,3.228999972E-1
8.441609439E0,-6.836000085E-1,1.425799966E0,-5.658999681E-1
8.461462564E0,-3.984999955E-1,1.518299937E0,-1.129599929E0
8.481315689E0,-4.091999829E-1,2.232599974E0,-1.523699999E0
8.501167252E0,-3.598999977E-1,3.048199892E0,-1.117699981E0
8.521020377E0,-5.873000026E-1,3.170399904E0,-8.314999938E-1
8.540871939E0,-8.921999931E-1,2.750499964E0,-6.365000010E-1
8.560725064E0,-1.078400016E0,1.712000012E0,-4.848999977E-1
8.580578189E0,-1.326399922E0,9.572999477E-1,-5.900000036E-2
8.600429752E0,-1.786199927E0,5.106999874E-1,-6.155999899E-1
8.620282877E0,-5.676000118E-1,-1.749599934E0,-5.523999929E-1
8.640136002E0,5.188399792E0,-1.354629993E1,2.703699827E0
8.659989127E0,3.267699957E0,-2.787489891E1,-1.160499930E0
8.679840689E0,7.737999558E-1,-9.150599480E0,-8.601200104E0
8.699693814E0,2.950999975E0,3.043299913E0,-2.544399977E0
8.719546939E0,2.039499998E0,8.535900116E0,2.899999917E-2
8.739398502E0,2.202800035E0,5.623699665E0,-4.105400085E0
8.759256314E0,3.118999898E-1,-1.172099948E0,-2.384599924E0
8.779103189E0,-1.791199923E0,-5.310299873E0,-1.516000032E-1
8.798956314E0,-1.664600015E0,-6.064799786E0,1.722199917E0
8.818809439E0,-1.873199940E0,-4.848899841E0,2.485199928E0
8.838667252E0,-2.162099838E0,-2.048399925E0,4.791199684E0
8.858514127E0,-7.809999585E-2,1.103999987E-1,2.766799927E0
8.878367252E0,1.520699978E0,8.222999573E-1,1.919899940E0
8.898225064E0,8.478999734E-1,1.282199979E0,9.171999693E-1
8.918073502E0,3.073000014E-1,1.991099954E0,-7.507999539E-1
8.937925064E0,-9.964999557E-1,1.939599991E0,-2.251899958E0
8.957778189E0,-1.148299932E0,2.065999985E0,-3.001199961E0
8.977631314E0,-5.602999926E-1,1.953799963E0,-1.853500009E0
8.997482877E0,-2.066999972E-1,1.780200005E0,-1.379999965E-1
9.017340689E0,-3.695999980E-1,1.717000008E0,6.687999964E-1
9.037189127E0,-6.090999842E-1,9.811999798E-1,3.763999939E-1
9.057040689E0,-4.093999863E-1,-2.347999960E-1,-6.376999617E-1
9.076893814E0,6.459999830E-2,-1.110499978E0,-3.419999778E-1
9.096746939E0,1.105899930E0,-1.192099929E0,1.580399990E0
9.116598502E0,1.726499915E0,-1.683200002E0,4.727399826E0
9.136451627E0,1.940400004E0,-4.466399670E0,4.047999859E0
9.156304752E0,4.970999956E-1,-5.798799992E0,-7.123000026E-1
9.176157877E0,-1.374599934E0,-5.839399815E0,-3.654799938E0
9.196009439E0,-4.998999834E-1,-4.002999783E0,-3.085099936E0
9.215862564E0,2.041300058E0,-1.665699959E0,-1.850000024E-1
9.235715689E0,3.031999826E0,-8.501999974E-1,1.867699981E0
9.255567252E0,2.200500011E0,-1.662599921E0,1.372699976E0
9.275420377E0,-1.670999974E-1,-1.858199954E0,6.539999843E-1
9.295273502E0,-1.924799919E0,-1.169199944E0,-1.597999930E-1
9.315125064E0,-1.976599932E0,-9.141999483E-1,-2.207299948E0
9.334978189E0,-1.844599962E0,-9.329999983E-2,-2.233999968E0
9.354831314E0,-9.782999754E-1,1.824999899E-1,-1.305299997E0
9.374682877E0,5.471999645E-1,3.460000083E-2,4.469999969E-1
9.394536002E0,1.489399910E0,-3.592000008E-1,1.038200021E0
9.414389127E0,1.547899961E0,-6.635000110E-1,6.735000014E-1
9.434240689E0,6.139999628E-1,-9.751999974E-1,4.235999882E-1
9.454093814E0,-1.500999928E-1,-1.441799998E0,5.073999763E-1
9.473946939E0,-5.040000081E-1,-1.831699967E0,1.164799929E0
9.493800064E0,-7.031999826E-1,-1.429600000E0,1.619699955E0
9.513651627E0,-2.964999974E-1,-6.466999650E-1,1.446099997E0
9.533509439E0,-2.214999944E-1,9.472999573E-1,5.471000075E-1
9.553357877E0,5.436999798E-1,2.512099981E0,-1.677999943E-1
9.573209439E0,1.019799948E0,3.923399925E0,-9.107999802E-1
9.593062564E0,9.791999459E-1,4.977399826E0,-1.593599916E0
9.612914127E0,1.709999889E-1,5.921299934E0,-1.689499974E0
9.632767252E0,-1.418699980E0,6.788599968E0,-1.236500025E0
9.652620377E0,-3.305799961E0,6.471099854E0,-6.132000089E-1
9.672473502E0,-4.984099865E0,4.749799728E0,2.827000022E-1
9.692325064E0,-6.007400036E0,2.480799913E0,2.721000016E-1
9.712178189E0,-5.556999683E0,3.007999957E-1,8.473999500E-1
9.732031314E0,-3.107800007E0,-2.295899868E0,5.326699734E0
9.751882877E0,-1.529299974E0,-7.926799774E0,1.167169952E1
9.771736002E0,3.152199984E0,-1.986709976E1,4.208300114E0
9.791589127E0,1.049700022E0,-3.207640076E1,-6.701299667E0
9.811440689E0,-1.248000026E0,-1.202089977E1,-1.286469936E1
9.831295377E0,2.398200035E0,2.582499981E0,-6.301699638E0
9.851146939E0,1.093599916E0,9.887800217E0,-1.935499907E0
9.871000064E0,2.758999825E0,5.152299881E0,-3.779699802E0
9.890853189E0,2.912499905E0,-2.215499878E0,-7.594000101E-1
9.910704752E0,6.341999769E-1,-5.677000046E0,1.756399989E0
9.930557877E0,7.169999927E-2,-4.569900036E0,2.797899961E0
9.950409439E0,-1.240000010E0,-1.433200002E0,4.806200027E0
9.970262564E0,-2.543400049E0,1.063499928E0,5.041599751E0
9.990115689E0,-3.406099796E0,1.841099977E0,1.757799983E0
1.000996725E1,-3.097100019E0,1.024699926E0,-1.257200003E0
1.002982194E1,-1.524500012E0,-2.497999966E-1,-3.151499987E0
1.004967350E1,-6.309999526E-2,-1.013700008E0,-2.774600029E0
1.006952663E1,7.727999687E-1,-6.994000077E-1,-3.158999979E-1
1.008937819E1,9.519999623E-1,-2.965999842E-1,1.928599954E0
1.010923131E1,5.976999998E-1,-3.743999898E-1,2.640599966E0
1.012908444E1,3.696999848E-1,-1.034699917E0,1.639799953E0
1.014893600E1,3.249000013E-1,-1.109799981E0,-2.252999991E-1
1.016878913E1,3.876999915E-1,-6.840999722E-1,-1.437500000E0
1.018864225E1,6.006999612E-1,-8.200000040E-3,-1.334699988E0
1.020849381E1,8.398999572E-1,6.022999883E-1,-5.600000024E-1
1.022834850E1,6.768000126E-1,1.867999882E-1,5.805000067E-1
1.024820006E1,-1.102999970E-1,-1.006999984E-1,1.058799982E0
1.026805163E1,-6.008999944E-1,-4.438000023E-1,3.960999846E-1
1.028790475E1,-1.730999947E-1,-3.834999800E-1,-3.145000041E-1
1.030775788E1,1.261199951E0,-1.428999901E-1,-3.012000024E-1
1.032761100E1,2.466699839E0,3.797999918E-1,5.931999683E-1
1.034746256E1,2.847899914E0,2.055999935E-1,9.854999781E-1
1.036731569E1,1.036700010E0,-1.956299901E0,7.141000032E-1
1.038716881E1,-2.316099882E0,-3.912599802E0,-1.365899920E0
1.040702038E1,-3.965899944E0,-4.850100040E0,-2.514799833E0
1.042687350E1,-3.254499912E0,-6.895499706E0,-2.277400017E0
1.044672663E1,-1.387999952E-1,-6.444599628E0,-1.976499915E0
1.046657819E1,3.676599979E0,-3.734200001E0,8.769999444E-2
1.048643131E1,4.853199959E0,-2.886499882E0,2.072200060E0
1.050628444E1,3.385699987E0,-3.026799917E0,1.561699986E0
1.052613756E1,9.334999919E-1,-2.545899868E0,-4.962999821E-1
1.054598913E1,-2.709199905E0,-1.013499975E0,-1.106400013E0
1.056584225E1,-4.141499996E0,7.289999723E-1,5.359999835E-2
1.058569538E1,-1.954399943E0,5.259000063E-1,4.226000011E-1
1.060554694E1,8.449999690E-1,1.744000018E-1,-1.899999939E-2
1.062540006E1,2.364799976E0,-2.589999884E-2,-2.799999900E-3
1.064525163E1,2.769399881E0,-4.129999876E-2,-1.481999904E-1
1.066510475E1,1.996899962E0,2.753999829E-1,6.121000051E-1
1.068495788E1,6.816999912E-1,8.833000064E-1,1.452499986E0
1.070481100E1,-5.931999683E-1,1.576900005E0,1.535499930E0
1.072466256E1,-1.474599957E0,2.225100040E0,1.110499978E0
1.074451569E1,-1.625800014E0,2.736999989E0,4.232999980E-1
1.076436881E1,-1.356299996E0,3.265899897E0,-3.420999944E-1
1.078422038E1,-1.097700000E0,3.830699921E0,-1.032599926E0
1.080407350E1,-9.991999865E-1,4.172100067E0,-1.338599920E0
1.082392663E1,-9.991999865E-1,4.151499748E0,-1.405399919E0
1.084377819E1,-9.900999665E-1,3.823799849E0,-8.703999519E-1
1.086363288E1,-9.563999772E-1,3.136099815E0,-3.163000047E-1
1.088348444E1,-6.466000080E-1,2.361799955E0,1.432999969E-1
1.090333756E1,-5.076000094E-1,1.536000013E0,3.120000064E-1
1.092319069E1,-1.283999979E-1,6.237999797E-1,5.597000122E-1
1.094304225E1,4.708999991E-1,-8.399999738E-1,8.407999873E-1
1.096289538E1,2.530900002E0,-3.070799828E0,-8.672999740E-1
1.098275319E1,6.316999912E0,-1.022009945E1,-1.015699983E0
1.100260006E1,7.311800003E0,-1.765460014E1,-4.623499870E0
1.102245319E1,1.897300005E0,-1.008990002E1,-2.678799868E0
1.104230475E1,-4.034299850E0,-1.163999960E-1,-2.703199863E0
1.106215788E1,-5.156099796E0,3.939799786E0,-4.091499805E0
1.108201100E1,-3.189499855E0,3.650699854E0,-3.729899883E0
1.110186256E1,-2.600000007E-3,7.314999700E-1,-1.541499972E0
1.112171725E1,1.211599946E0,-2.090299845E0,1.889899969E0
1.114156881E1,6.962999701E-1,-2.050999880E0,3.218199968E0
1.116142194E1,1.729999930E-1,-7.871999741E-1,3.136799812E0
1.118127506E1,2.834999859E-1,5.478000045E-1,2.496999979E0
1.120112663E1,9.573999643E-1,3.076999784E-1,8.231999874E-1
1.122097975E1,1.567799926E0,-3.552999794E-1,3.795000017E-1
1.124083288E1,1.387799978E0,-5.576999784E-1,3.513000011E-1
1.126068444E1,3.310999870E-1,-5.415999889E-1,-2.291999906E-1
1.128053756E1,-1.512799978E0,-4.867999852E-1,-1.037299991E0
1.130038913E1,-1.641799927E0,-5.503000021E-1,-1.200099945E0
1.132024381E1,-1.472199917E0,-6.825999618E-1,-1.010699987E0
1.134009538E1,-7.337999940E-1,-8.863999844E-1,-6.216999888E-1
1.135994694E1,-1.300000004E-3,-7.190999985E-1,-8.139999956E-2
1.137980006E1,2.493999898E-1,-3.752000034E-1,5.343999863E-1
1.139965319E1,9.431999922E-1,1.255999953E-1,6.917999983E-1
1.141950475E1,1.573300004E0,5.703999996E-1,5.501999855E-1
1.143935788E1,1.787699938E0,6.685999632E-1,5.078999996E-1
1.145921100E1,1.557500005E0,3.795999885E-1,6.122999787E-1
1.147906413E1,7.622999549E-1,-2.128999978E-1,5.386999846E-1
1.149891569E1,-3.680000082E-2,-4.220999777E-1,8.569999933E-1
1.151876881E1,-4.095999897E-1,6.879999489E-2,1.564899921E0
1.153862194E1,-3.025999963E-1,-7.019999623E-2,2.164299965E0
1.155847506E1,-6.078000069E-1,-8.477999568E-1,1.300300002E0
1.157832663E1,-1.770399928E0,-2.384099960E0,-1.045400023E0
1.159817975E1,-3.498899937E0,-4.653899670E0,-2.748100042E0
1.161803131E1,-5.115999699E0,-6.733999729E0,-2.780799866E0
1.163788444E1,-4.203899860E0,-7.241199970E0,-2.490399837E0
1.165773756E1,3.413999975E-1,-5.565000057E0,-2.305099964E0
1.167759069E1,4.731599808E0,-3.757799864E0,-9.448999763E-1
1.169744225E1,5.793399811E0,-2.169100046E0,2.736999989E-1
1.171729538E1,4.227699757E0,-1.517899990E0,1.220099926E0
1.173714850E1,2.588999987E0,-1.580099940E0,2.829999924E-1
1.175700163E1,3.833999932E-1,-5.997999907E-1,7.347999811E-1
1.177685319E1,-3.460999966E0,1.555499911E0,2.002999932E-1
1.179670631E1,-4.760499954E0,1.292999983E0,3.585999906E-1
1.181655944E1,-3.854599953E0,-2.133999914E-1,9.468999505E-1
1.183641100E1,-1.275200009E0,-1.783899903E0,1.097999960E-1
1.185626413E1,7.060999870E-1,-2.253399849E0,-2.389999926E-1
1.187611725E1,1.586699963E0,-1.781499982E0,-2.160999924E-1
1.189597038E1,1.994899988E0,-9.030999541E-1,1.705999970E-1
1.191582194E1,1.444299936E0,1.431999952E-1,9.434999824E-1
1.193567506E1,1.344999909E0,9.452999830E-1,6.220999956E-1
1.195552663E1,1.133899927E0,2.175899982E0,6.292999983E-1
1.197537975E1,7.220000029E-1,3.102799892E0,4.373999834E-1
1.199523131E1,-1.195999980E-1,3.673899889E0,-1.189999953E-1
1.201508444E1,-7.548999786E-1,3.763399839E0,-4.267999828E-1
1.203493756E1,-1.409199953E0,3.679799795E0,-7.008000016E-1
1.205479069E1,-1.739399910E0,3.879199982E0,-8.492999673E-1
1.207464381E1,-1.920899987E0,3.912799835E0,-9.445999861E-1
1.209449538E1,-1.910200000E0,3.930799961E0,-1.109899998E0
1.211434694E1,-2.051100016E0,3.908499956E0,-1.196399927E0
1.213420163E1,-1.872699976E0,3.477599859E0,-1.059499979E0
1.215405475E1,-1.800399899E0,1.882499933E0,2.681999803E-1
1.217390475E1,-1.403299928E0,-5.880999565E-1,2.303499937E0
1.219375944E1,-1.024699926E0,-3.649299860E0,3.065500021E0
1.221361100E1,1.169999968E-2,-8.090999603E0,4.327300072E0
1.223346413E1,4.562500000E0,-1.775000000E1,4.269599915E0
1.225331725E1,5.791199684E0,-2.629129982E1,-3.845799923E0
1.227316881E1,-9.649999738E-1,-9.123700142E0,-7.337899685E0
1.229302194E1,-1.941799998E0,3.763499975E0,-7.359399796E0
1.231287350E1,-1.426100016E0,9.387299538E0,-3.862799883E0
1.233272663E1,3.219999745E-2,9.347000122E0,-1.072399974E0
1.235257975E1,2.526099920E0,3.940999985E0,1.588699937E0
1.237243756E1,1.898299932E0,-2.346899986E0,3.691699982E0
1.239228444E1,-4.571999907E-1,-4.694900036E0,3.793699980E0
1.241213756E1,-6.570999622E-1,-5.374399662E0,2.197599888E0
1.243199069E1,-1.133599997E0,-2.904199839E0,4.221999943E-1
1.245184225E1,-2.236000061E0,-1.013999954E-1,1.416099906E0
1.247169694E1,-8.618999720E-1,1.569999941E-2,2.399099827E0
1.249154850E1,8.448999524E-1,-6.923999786E-1,3.479799986E0
1.251140631E1,3.129000068E-1,-6.489999890E-1,2.516299963E0
1.253125319E1,-9.089999795E-1,-4.681999981E-1,-1.397999972E-1
1.255110631E1,-1.531999946E0,-3.267000020E-1,-1.478299975E0
1.257095944E1,-9.807999730E-1,-3.483999968E-1,-1.867299914E0
1.259081100E1,-1.014999971E-1,-3.373000026E-1,-1.883599997E0
1.261066413E1,4.083999991E-1,-3.273999989E-1,-1.810799956E0
1.263051725E1,8.151999712E-1,1.125999987E-1,-1.081699967E0
1.265036881E1,1.171000004E0,4.936999977E-1,2.192000002E-1
1.267022194E1,1.516799927E0,1.055999994E-1,1.506199956E0
1.269007506E1,1.518000007E0,-3.163000047E-1,2.360100031E0
1.270992663E1,8.531999588E-1,-1.696999967E-1,2.877300024E0
1.272977975E1,-4.069999754E-1,2.313999981E-1,1.795699954E0
1.274963288E1,-7.243999839E-1,-5.080000162E-1,2.257999927E-1
1.276948600E1,-9.914999604E-1,-6.959999800E-1,-1.770399928E0
1.278933756E1,-1.323199987E0,-1.402300000E0,-2.881500006E0
1.280919069E1,-1.629999995E0,-3.067999840E0,-1.984799981E0
1.282904381E1,-2.135999918E0,-5.060800076E0,-9.361000061E-1
1.284889538E1,-1.207399964E0,-5.464299679E0,-3.099999949E-2
1.286874850E1,1.291899920E0,-4.295499802E0,6.030000001E-2
1.288860163E1,3.943599939E0,-1.920899987E0,2.541999817E-1
1.290845319E1,4.575599670E0,-6.942999959E-1,3.993999958E-1
1.292830631E1,3.579699993E0,1.436000019E-1,5.450999737E-1
1.294815944E1,2.160099983E0,-5.518000126E-1,7.360000163E-2
1.296801256E1,-6.103999615E-1,-1.513299942E0,-8.920999765E-1
1.298786413E1,-2.909799814E0,-1.658199906E0,-1.439199924E0
1.300771725E1,-3.414599895E0,-1.544499993E0,1.391000003E-1
1.302757038E1,-1.892699957E0,-1.191100001E0,9.513999820E-1
1.304742194E1,-2.389999852E-2,-9.681999683E-1,7.305999994E-1
1.306727506E1,1.327000022E0,-9.771999717E-1,5.533999801E-1
1.308712819E1,1.394400001E0,-9.540999532E-1,2.933999896E-1
1.310697975E1,9.157999754E-1,-6.873999834E-1,1.498000026E-1
1.312683288E1,5.051999688E-1,-2.390999943E-1,4.752999842E-1
1.314668600E1,5.810999870E-1,5.723999739E-1,7.172999978E-1
1.316653913E1,5.029000044E-1,1.407299995E0,6.834999919E-1
1.318639069E1,2.360000014E-1,2.419100046E0,4.544999897E-1
1.320624381E1,-3.161999881E-1,3.027499914E0,5.159999803E-2
1.322609694E1,-1.023399949E0,3.384699821E0,-3.158999979E-1
1.324594850E1,-1.515699983E0,3.546299934E0,-7.206000090E-1
1.326580163E1,-1.731799960E0,3.622499943E0,-9.764999747E-1
1.328565319E1,-1.550400019E0,3.826399803E0,-9.066999555E-1
1.330550631E1,-1.461199999E0,4.247699738E0,-9.441999793E-1
1.332535944E1,-1.496599913E0,4.251100063E0,-9.384999871E-1
1.334521256E1,-1.713699937E0,3.979299784E0,-4.978999794E-1
1.336506413E1,-1.877399921E0,3.096400023E0,-5.195999742E-1
1.338491725E1,-1.463099957E0,1.413999915E0,6.128999591E-1
1.340476881E1,-6.826999784E-1,-1.000999928E0,2.602499962E0
1.342462194E1,2.491999865E-1,-3.738999844E0,2.912699938E0
1.344447506E1,1.607499957E0,-8.035799980E0,4.543900013E0
1.346432819E1,5.180099964E0,-1.728400040E1,6.350199699E0
1.348417975E1,3.308300018E0,-2.101939964E1,-4.683199883E0
1.350403288E1,-3.002799988E0,-5.149199963E0,-7.327499866E0
1.352388600E1,-2.759299994E0,5.745399952E0,-6.771699905E0
1.354373756E1,-3.603000045E-1,9.828299522E0,-2.278599977E0
1.356359069E1,3.032999992E0,7.079599857E0,-1.085799932E0
1.358344381E1,3.148499966E0,1.018899918E0,9.975999594E-1
1.360329694E1,8.216999769E-1,-3.482399940E0,2.204699993E0
1.362315475E1,-1.214200020E0,-4.370299816E0,1.694999933E0
1.364300163E1,-2.121999979E0,-4.030699730E0,1.720699906E0
1.366285319E1,-3.073499918E0,-2.907099962E0,2.105700016E0
1.368270631E1,-2.991999865E0,-2.052399874E0,3.153499842E0
1.370255944E1,-9.413999915E-1,-1.219299912E0,1.911099911E0
1.372241256E1,1.167699933E0,-4.337999821E-1,8.980000019E-1
1.374226413E1,2.057100058E0,3.501999974E-1,3.971999884E-1
1.376212350E1,1.502599955E0,4.917999804E-1,-6.187999845E-1
1.378197038E1,-8.200000040E-3,3.906999826E-1,-1.362299919E0
1.380182194E1,-1.086699963E0,4.561999738E-1,-1.404299974E0
1.382167506E1,-1.245999932E0,2.205999941E-1,-9.290999770E-1
1.384152819E1,-1.131299973E0,-1.387999952E-1,-3.168999851E-1
1.386137975E1,-5.297999978E-1,-1.609999873E-2,-1.158999950E-1
1.388123288E1,1.158000007E-1,-1.230999976E-1,2.324999869E-1
1.390108600E1,7.410999537E-1,7.999999821E-2,4.757999778E-1
1.392093913E1,1.283499956E0,3.043999970E-1,5.849999785E-1
1.394079069E1,1.506999969E0,5.503999591E-1,7.599999905E-1
1.396064381E1,1.181399941E0,5.443999767E-1,8.680999875E-1
1.398049694E1,5.130000114E-1,-1.328999996E-1,6.304000020E-1
1.400034850E1,-2.334999889E-1,-2.971999943E-1,4.872999787E-1
1.402020163E1,-4.879999757E-1,-1.604000032E-1,8.732999563E-1
1.404005475E1,-1.982000023E-1,-5.483999848E-1,9.839999676E-1
1.405990788E1,-5.853999853E-1,-1.004199982E0,1.709999889E-2
1.407975944E1,-1.431100011E0,-2.130699873E0,-1.774500012E0
1.409961256E1,-2.338999987E0,-4.602200031E0,-2.663499832E0
1.411946413E1,-2.762599945E0,-5.829099655E0,-2.305699825E0
1.413931725E1,-1.301800013E0,-5.489299774E0,-1.773399949E0
1.415917038E1,2.704799891E0,-3.138899803E0,-9.735999703E-1
1.417902350E1,5.507599831E0,-5.859999657E-1,7.123999596E-1
1.419887506E1,5.407599926E0,7.299999595E-1,1.508999944E0
1.421872819E1,3.931099892E0,4.985999763E-1,9.099999666E-1
1.423858131E1,1.619799972E0,-1.361299992E0,4.539999738E-2
1.425843288E1,-2.520499945E0,-1.560699940E0,-7.053999901E-1
1.427828600E1,-4.864599705E0,-1.484899998E0,-2.920999825E-1
1.429813913E1,-4.609399796E0,-1.017699957E0,1.380999982E-1
1.431799225E1,-2.483399868E0,-5.601999760E-1,5.518000126E-1
1.433784381E1,-2.513000071E-1,-6.172999740E-1,2.648999989E-1
1.435769694E1,1.004400015E0,-5.236999989E-1,-1.557999998E-1
1.437755006E1,1.337899923E0,-6.563999653E-1,1.577000022E-1
1.439740163E1,1.085699916E0,-6.297000051E-1,4.129999876E-1
1.441725475E1,1.149299979E0,-5.411999822E-1,6.499999762E-1
1.443710631E1,9.217999578E-1,-2.915999889E-1,9.197999835E-1
1.445695944E1,7.258999944E-1,-4.299999774E-2,9.560999870E-1
1.447681256E1,4.723999798E-1,8.682999611E-1,8.078999519E-1
1.449666569E1,2.550999820E-1,1.419899940E0,2.428999990E-1
1.451651725E1,-3.298999965E-1,1.826399922E0,1.569999903E-1
1.453637038E1,-7.519999743E-1,2.058699846E0,-1.730000041E-2
1.455622350E1,-6.606999636E-1,1.914199948E0,-4.769999906E-2
1.457607506E1,-7.167999744E-1,2.292000055E0,-8.060000092E-2
1.459592819E1,-5.697000027E-1,2.956799984E0,-5.141000152E-1
1.461577975E1,8.150000125E-2,3.751099825E0,-8.404999971E-1
1.463563288E1,-9.649999440E-2,3.609799862E0,-1.019500017E0
1.465548600E1,-5.152999759E-1,3.403299809E0,-8.096999526E-1
1.467533913E1,-1.142699957E0,3.379799843E0,-6.668999791E-1
1.469519069E1,-1.336300015E0,2.259099960E0,4.439999908E-2
1.471504381E1,-1.742799997E0,8.434000015E-1,1.933799982E0
1.473489694E1,-1.862999916E0,7.317000031E-1,2.153599977E0
1.475474850E1,-8.071999550E-1,-4.035999775E-1,1.408900023E0
1.477460163E1,-3.700999916E-1,-2.820600033E0,2.254299879E0
1.479445475E1,2.518499851E0,-9.826700211E0,3.211499929E0
1.481430631E1,6.895299911E0,-2.189629936E1,-3.017199993E0
1.483415944E1,8.019999862E-1,-1.822509956E1,-4.946000099E0
1.485401256E1,-8.001999855E-1,3.924299955E0,-6.842099667E0
1.487386569E1,-1.307999939E-1,9.510099411E0,-3.308300018E0
1.489371725E1,8.473999500E-1,8.427399635E0,-2.930599928E0
1.491357038E1,1.513499975E0,3.525599957E0,-1.330399990E0
1.493342350E1,2.089999914E-1,-3.699899912E0,1.408299923E0
1.495327506E1,-7.347999811E-1,-6.109499931E0,2.887599945E0
1.497312819E1,-1.517999917E-1,-4.769000053E0,2.985899925E0
1.499298131E1,-6.879999638E-1,-2.292000055E0,2.478799820E0
1.501283913E1,-2.050499916E0,1.592999995E-1,2.543499947E0
1.503268600E1,-2.584699869E0,1.261699915E0,2.724200010E0
1.505253913E1,-1.568799973E0,4.984999895E-1,-2.543999851E-1
1.507239225E1,1.744999886E-1,-4.152999818E-1,-1.134799957E0
1.509224381E1,5.318999887E-1,-2.683999836E-1,6.499999762E-2
1.511209694E1,8.046000004E-1,-4.220999777E-1,1.810999960E-1
1.513195006E1,5.536000133E-1,-4.211999774E-1,1.225999966E-1
1.515180788E1,3.082000017E-1,-2.551999986E-1,-5.198000073E-1
1.517165475E1,-1.347000003E-1,4.849999771E-2,-1.021600008E0
1.519150788E1,-1.086999997E-1,3.978999853E-1,-1.128499985E0
1.521135944E1,2.339999937E-2,7.400000095E-2,-8.477999568E-1
1.523121256E1,3.394999802E-1,2.053999901E-1,9.860000014E-2
1.525106569E1,6.674999595E-1,6.329999864E-2,1.551800013E0
1.527091881E1,4.457999766E-1,-1.232999936E-1,2.839699984E0
1.529077038E1,3.387999833E-1,4.319999740E-2,2.588500023E0
1.531062350E1,8.686999679E-1,-8.751999736E-1,1.921599984E0
1.533047663E1,1.519199967E0,-1.402699947E0,-3.588999808E-1
1.535032819E1,2.317999899E-1,-1.548099995E0,-2.620100021E0
1.537018131E1,-1.321499944E0,-3.151599884E0,-3.300199986E0
1.539003444E1,-2.244299889E0,-6.014599800E0,-2.467000008E0
1.540988600E1,-3.760699987E0,-7.381999969E0,-1.474699974E0
1.542973913E1,-2.678299904E0,-6.963299751E0,-5.978999734E-1
1.544959225E1,1.449599981E0,-4.291800022E0,-1.536999941E-1
1.546944538E1,5.098700047E0,-9.802999496E-1,6.071000099E-1
1.548929694E1,5.190299988E0,1.651099920E0,1.197999954E0
1.550915006E1,3.779500008E0,2.748699903E0,9.782999754E-1
1.552900319E1,1.356199980E0,1.291000009E0,3.185999990E-1
1.554885475E1,-1.042999983E0,-8.314999938E-1,-8.102999926E-1
1.556870788E1,-3.086199999E0,-2.160899878E0,-1.724599957E0
1.558856100E1,-2.966899872E0,-2.064899921E0,-3.558999896E-1
1.560841256E1,-1.853899956E0,-1.752699971E0,8.862999678E-1
1.562826569E1,-9.305999875E-1,-1.123099923E0,1.196299911E0
1.564811725E1,1.004000008E-1,-7.894999981E-1,8.047999740E-1
1.566797194E1,5.868999958E-1,-6.771999598E-1,3.361999989E-1
1.568782350E1,5.238000154E-1,-2.917000055E-1,4.638999999E-1
1.570767663E1,8.218999505E-1,-1.986999959E-1,8.779999614E-2
1.572752819E1,8.292999864E-1,8.781999946E-1,1.705999970E-1
1.574738131E1,8.816999793E-1,2.690399885E0,7.928000093E-1
1.576723444E1,6.997999549E-1,4.245299816E0,1.674000025E-1
1.578708756E1,6.899999920E-3,5.448199749E0,-5.762999654E-1
1.580693913E1,-1.869599938E0,4.949299812E0,-1.365099907E0
1.582679225E1,-2.805799961E0,3.592899799E0,-1.507699966E0
1.584664381E1,-3.648599863E0,2.878199816E0,-4.663999975E-1
1.586649694E1,-3.906199932E0,3.502399921E0,3.359999880E-2
1.588635006E1,-2.777699947E0,4.400700092E0,-9.739999473E-2
1.590620319E1,-1.807299972E0,4.420899868E0,-8.129999787E-2
1.592605475E1,-8.590999842E-1,2.968099833E0,3.506000042E-1
1.594590788E1,3.534999788E-1,-9.030999541E-1,3.016899824E0
1.596576100E1,5.992000103E-1,-6.676499844E0,8.329199791E0
1.598561256E1,3.885000050E-1,-1.011940002E1,8.021200180E0
1.600546569E1,1.672999978E0,-9.050999641E0,2.348599911E0
1.602531725E1,3.504999876E0,-9.389699936E0,1.876699924E0
1.604517038E1,3.787999868E0,-1.123709965E1,6.191999912E-1
1.606502350E1,2.190599918E0,-9.652799606E0,-4.016699791E0
1.608487663E1,-2.564100027E0,3.753799915E0,-4.447599888E0
1.610472819E1,-4.548699856E0,2.720700026E0,-1.588400006E0
1.612458131E1,-3.635999858E-1,4.398999691E0,-2.045399904E0
1.614443444E1,2.454200029E0,3.709299803E0,-1.563599944E0
1.616428600E1,3.049799919E0,3.498699903E0,-1.255900025E0
1.618413913E1,1.462299943E0,2.717499971E0,4.189999998E-1
1.620399225E1,-2.461199999E0,-6.380000114E-1,1.464999914E-1
1.622384538E1,-2.765899897E0,-1.811999917E0,-2.732000053E-1
1.624369694E1,-2.096999884E0,-1.684199929E0,1.008399963E0
1.626355006E1,-3.799999952E-1,-1.325599909E0,2.962299824E0
1.628340319E1,9.986999631E-1,-1.111500025E0,3.269199848E0
1.630325475E1,2.276999950E-1,-9.722999930E-1,2.603399992E0
1.632310788E1,3.560999930E-1,-7.986999750E-1,9.822999835E-1
1.634296100E1,-1.990000010E-1,-4.023000002E-1,-2.080999911E-1
1.636281256E1,-9.070000052E-2,3.799999878E-2,-5.690999627E-1
1.638266569E1,6.500999928E-1,5.499999970E-2,1.524000019E-1
1.640251881E1,-3.357999921E-1,2.755999863E-1,9.128999710E-1
1.642237194E1,-3.448999822E-1,6.617999673E-1,6.771000028E-1
1.644222350E1,3.713999987E-1,8.418999910E-1,-1.850000024E-1
1.646207663E1,8.003000021E-1,1.178699970E0,-7.700999975E-1
1.648193600E1,1.292099953E0,1.584999919E0,-1.234300017E0
1.650178131E1,3.375999928E-1,1.253099918E0,-7.269999981E-1
1.652163444E1,-2.261999995E-1,5.126999617E-1,-5.654000044E-1
1.654148756E1,-2.294999957E-1,3.552999794E-1,2.689999938E-1
1.656134069E1,-2.412999868E-1,-2.725999951E-1,9.814999700E-1
1.658119225E1,-7.859999537E-1,-1.288100004E0,2.973799944E0
1.660104538E1,-1.212800026E0,-2.307999849E0,2.817499876E0
1.662089850E1,-6.214999557E-1,-1.955500007E0,9.733999968E-1
1.664075006E1,4.512999952E-1,-1.626099944E0,-1.051499963E0
1.666060319E1,1.357199907E0,-2.019299984E0,-2.706099987E0
1.668045631E1,2.326999903E0,-3.069799900E0,-1.632699966E0
1.670030788E1,1.611400008E0,-4.910799980E0,2.488999963E-1
1.672016100E1,-7.339999825E-2,-6.114199638E0,1.628600001E0
1.674001413E1,-5.155000091E-1,-6.553099632E0,3.472999930E-1
1.675986569E1,-1.359999925E-1,-4.900300026E0,-1.069599986E0
1.677971881E1,1.278599977E0,-1.540799975E0,-1.345600009E0
1.679957194E1,2.714599848E0,1.565999985E0,-9.969999790E-1
1.681942506E1,2.691900015E0,3.032999992E0,-7.480999827E-1
1.683927663E1,1.252599955E0,3.131899834E0,3.895999789E-1
1.685912975E1,-9.983999729E-1,2.249099970E0,1.030499935E0
1.687898288E1,-2.359799862E0,-2.260499954E0,9.009999633E-1
1.689883444E1,-2.666499853E0,-3.121299982E0,1.021499991E0
1.691868756E1,-2.017299891E0,-3.485999823E0,-1.472000033E-1
1.693854069E1,-5.340999961E-1,-2.149800062E0,3.179999888E-1
1.695839381E1,5.752999783E-1,-5.986999869E-1,4.855999947E-1
1.697824538E1,1.855199933E0,6.147999763E-1,-1.479000002E-1
1.699809850E1,1.570500016E0,1.032999992E0,-3.750999868E-1
1.701795006E1,3.506999910E-1,1.653999925E0,-7.100000046E-3
1.703780319E1,-3.962000012E-1,1.645099998E0,-5.087000132E-1
1.705765631E1,-1.420899987E0,1.451200008E0,-4.541999996E-1
1.707750944E1,-1.748899937E0,1.833799958E0,6.899999827E-2
1.709736100E1,-8.199999928E-1,2.380300045E0,4.269999862E-1
1.711721413E1,-4.019999877E-2,2.734899998E0,6.340999603E-1
1.713706569E1,-2.096999884E-1,3.496299982E0,2.918999791E-1
1.715691881E1,-7.325999737E-1,3.988799810E0,-4.784999788E-1
1.717677663E1,-7.245999575E-1,4.419899940E0,-5.731999874E-1
1.719662350E1,-1.869999990E-2,4.196399689E0,-1.026000008E-1
1.721647663E1,-1.314000040E-1,2.592099905E0,1.471699953E0
1.723632975E1,-1.508499980E0,1.584899902E0,1.695500016E0
1.725618131E1,-2.923399925E0,-8.120999932E-1,1.834199905E0
1.727603444E1,-1.608399987E0,-3.705600023E0,3.470499992E0
1.729588756E1,-7.182999849E-1,-6.154500008E0,6.282899857E0
1.731574069E1,1.579199910E0,-8.426300049E0,4.430900097E0
1.733559225E1,3.006999969E0,-1.086250019E1,2.445699930E0
1.735544538E1,1.418900013E0,-1.295989990E1,-1.974900007E0
1.737529850E1,-5.706999898E-1,-8.316599846E0,-8.022600174E0
1.739515006E1,2.104799986E0,-2.017999887E-1,-6.845099926E0
1.741500319E1,5.332200050E0,4.075799942E0,-1.403199911E0
1.743485631E1,4.712399960E0,1.732299924E0,1.077499986E0
1.745470788E1,-2.440099955E0,2.475199938E0,5.895999670E-1
1.747456100E1,-5.982999802E0,3.160199881E0,-4.558999836E-1
1.749441413E1,-3.873399973E0,2.579200029E0,-2.092799902E0
1.751426569E1,-1.238499999E0,-5.684999824E-1,1.623099923E0
1.753411881E1,9.496999979E-1,-1.375000000E0,2.234599829E0
1.755397350E1,1.093999967E-1,-1.236999989E0,2.380100012E0
1.757382506E1,-2.247400045E0,-7.351999879E-1,1.977499962E0
1.759367819E1,-2.558599949E0,-1.368999958E0,1.559000015E0
1.761352975E1,-1.856599927E0,-1.870199919E0,3.346899986E0
1.763338288E1,-1.208899975E0,-1.254400015E0,3.745199919E0
1.765323444E1,-4.990999997E-1,-4.082999825E-1,1.649099946E0
1.767308756E1,-1.334900022E0,-6.424999833E-1,-1.186599970E0
1.769294069E1,-1.174099922E0,-1.058399916E0,-2.182199955E0
1.771279381E1,1.772999913E-1,-1.707199931E0,-2.046200037E0
1.773264538E1,2.175999880E0,-2.255300045E0,-1.287899971E0
1.775249850E1,1.423999906E0,-8.228999972E-1,-4.816999733E-1
1.777235163E1,5.639999732E-2,-8.799999952E-2,7.970000058E-2
1.779220319E1,2.799999900E-3,4.454999864E-1,1.133999944E0
1.781205631E1,-6.470999718E-1,1.071599960E0,1.004199982E0
1.783190944E1,-1.322600007E0,1.098099947E0,1.289099932E0
1.785176100E1,-1.668099999E0,7.813999653E-1,1.592999935E0
1.787162038E1,-2.048099995E0,1.480000000E-2,1.076699972E0
1.789146725E1,-1.604399920E0,-8.222999573E-1,-1.926999986E-1
1.791131881E1,-7.736999989E-1,-8.363999724E-1,-8.104000092E-1
1.793117194E1,-2.960000001E-2,-2.099099874E0,-1.434700012E0
1.795102506E1,-5.985000134E-1,-1.413100004E0,-2.169100046E0
1.797087819E1,-3.654399872E0,-3.614899874E0,-1.209699988E0
1.799072975E1,-1.763000011E0,-3.460099936E0,-6.030000001E-2
1.801058288E1,1.835299969E0,-1.974499941E0,-1.429399967E0
1.803043600E1,2.463099957E0,-1.244400024E0,-1.438999921E-1
1.805028756E1,6.021999717E-1,-2.594300032E0,-6.021999717E-1
1.807014694E1,-2.464999914E0,-2.420399904E0,-2.602099895E0
1.808999381E1,-4.404999733E0,-4.062999725E0,-3.761399984E0
1.810984538E1,-2.879899979E0,-2.961400032E0,-2.442899942E0
1.812969850E1,-3.382000029E-1,-3.013999939E0,-2.743999958E-1
1.814955163E1,1.555400014E0,-2.072499990E0,9.496999979E-1
1.816940475E1,1.732100010E0,-1.420599937E0,3.794999838E0
1.818925631E1,3.274999857E-1,3.283999860E-1,2.764799833E0
1.820910944E1,-9.684999585E-1,5.622000098E-1,1.665099978E0
1.822896256E1,-1.186900020E0,9.434999824E-1,-1.772999913E-1
1.824881569E1,-4.290999770E-1,1.322899938E0,-1.632399917E0
1.826866725E1,-8.659999818E-2,2.155900002E0,-6.322999597E-1
1.828852038E1,-4.343999922E-1,2.977799892E0,8.630000055E-2
1.830837350E1,-3.781999946E-1,3.092299938E0,6.531999707E-1
1.832822506E1,-6.692000031E-1,3.042999983E0,2.681799889E0
1.834807819E1,-6.437000036E-1,2.093299866E0,1.669399977E0
1.836793131E1,-1.316599965E0,7.232999802E-1,4.714999795E-1
1.838778444E1,-1.373799920E0,-1.209999993E-2,-1.064599991E0
1.840763600E1,-5.072999597E-1,-4.714999795E-1,-2.058500051E0
1.842748913E1,1.148800015E0,-2.377000004E-1,-1.117699981E0
1.844734069E1,2.042299986E0,1.092000008E-1,1.172299981E0
1.846719381E1,3.085000038E0,7.501999736E-1,1.013800025E0
1.848704538E1,1.242100000E0,7.775999904E-1,2.301100016E0
1.850690006E1,-5.828999877E-1,9.839999676E-2,3.120100021E0
1.852675163E1,-1.047899961E0,-1.203400016E0,2.487499952E0
1.854660475E1,-1.563799977E0,-2.260299921E0,1.739099979E0
1.856646256E1,-1.869699955E0,-2.713500023E0,1.229799986E0
1.858630944E1,-5.722999573E-1,-2.599799871E0,8.379999995E-1
1.860616256E1,-3.125000000E-1,-2.319299936E0,1.266799927E0
1.862601413E1,2.369999886E-1,-1.194800019E0,1.461300015E0
1.864586725E1,1.741099954E0,1.555999964E-1,1.129299998E0
1.866572038E1,2.245499849E0,7.184000015E-1,8.224999905E-1
1.868557350E1,2.242699862E0,1.592099905E0,7.766999602E-1
1.870542663E1,1.915399909E0,2.500799894E0,5.742999911E-1
1.872527819E1,1.780999899E0,2.137399912E0,6.732000113E-1
1.874513131E1,1.977799892E0,1.537099957E0,7.512999773E-1
1.876498444E1,5.363000035E-1,6.312999725E-1,2.399199963E0
1.878483756E1,-7.484999895E-1,4.822999835E-1,4.987400055E0
1.880468913E1,-1.655399919E0,1.392000020E-1,1.564599991E0
1.882454225E1,-9.347999692E-1,7.902999520E-1,4.197999835E-1
1.884439381E1,-8.068000078E-1,3.660999835E-1,-2.884999812E-1
1.886424694E1,-5.699999928E-1,6.431999803E-1,-1.071699977E0
1.888410006E1,2.155999988E-1,9.418999553E-1,-1.727100015E0
1.890395163E1,1.185299993E0,8.436999917E-1,-7.444999814E-1
1.892380475E1,1.565899968E0,5.426999927E-1,-1.134599924E0
1.894365631E1,6.567999721E-1,1.738999933E-1,-2.216199875E0
1.896350944E1,-4.278999865E-1,4.649999738E-2,-2.150500059E0
1.898336256E1,3.827999830E-1,4.562999904E-1,-1.222100019E0
1.900321569E1,1.569700003E0,8.388999701E-1,-7.662000060E-1
1.902306725E1,1.422799945E0,6.710999608E-1,-2.162899971E0
1.904292038E1,7.110999823E-1,6.026999950E-1,-3.689800024E0
1.906277350E1,-2.590999901E-1,3.826999962E-1,-3.088099957E0
1.908262506E1,-2.908999920E-1,3.246999979E-1,-1.044099927E0
1.910247819E1,-2.020999938E-1,-9.459999949E-2,-4.964999855E-1
1.912233131E1,-6.958000064E-1,-3.838999867E-1,-1.507900000E0
1.914218288E1,-8.707999587E-1,-5.228999853E-1,-1.951499939E0
1.916203600E1,-1.009599924E0,-4.821999967E-1,-9.102999568E-1
1.918188913E1,-1.136099935E0,-4.976999760E-1,2.044999897E-1
1.920174225E1,-7.410999537E-1,-1.314000040E-1,1.031499982E0
1.922159538E1,2.144999951E-1,9.019999951E-2,5.979999900E-1
1.924144694E1,9.550999999E-1,4.788999856E-1,-3.762999773E-1
1.926130475E1,9.886999726E-1,5.619999766E-1,-6.760999560E-1
1.928115163E1,8.141999841E-1,4.601999819E-1,-6.873999834E-1
1.930100475E1,6.866999865E-1,2.708999813E-1,-2.252999991E-1
1.932086413E1,5.157999992E-1,3.200999796E-1,7.931999564E-1
1.934071100E1,2.184000015E-1,3.238999844E-1,1.799600005E0
1.936056256E1,-1.614999920E-1,5.333999991E-1,2.062399864E0
1.938041569E1,-3.651999831E-1,5.282999873E-1,7.303999662E-1
1.940026881E1,1.676299930E0,6.518999934E-1,-7.008999586E-1
1.942012038E1,1.831999898E0,6.631999612E-1,1.769899964E0
1.943997350E1,1.148499966E0,7.495999932E-1,2.023499966E0
1.945982663E1,2.502999902E-1,8.930000067E-1,2.862699986E0
1.947967819E1,5.561000109E-1,2.188999951E-1,1.635899901E0
