"Time (s)","Gyroscope x (rad/s)","Gyroscope y (rad/s)","Gyroscope z (rad/s)"
4.240689000E-3,3.511602432E-2,-1.012989059E-1,-2.199812979E-1
2.410943900E-2,3.511602432E-2,-1.012989059E-1,-2.199812979E-1
4.394225200E-2,0.000000000E0,0.000000000E0,0.000000000E0
6.379381400E-2,1.317199916E-1,-7.051828504E-1,-1.065907478E0
8.364693900E-2,1.022239327E-1,-6.534163356E-1,-1.019342065E0
1.035000640E-1,8.045967668E-2,-6.008121371E-1,-9.285326004E-1
1.233516270E-1,2.644173801E-2,-3.918089569E-1,-5.159891248E-1
1.432047520E-1,-1.176351868E-2,-2.927615345E-1,-2.984862030E-1
1.630578770E-1,-3.851941600E-2,-2.813645303E-1,-2.671226263E-1
1.829110020E-1,-6.806784123E-2,-3.395014405E-1,-4.078834355E-1
2.027625640E-1,-9.070476145E-2,-4.950975478E-1,-7.907214165E-1
2.226156890E-1,-1.164658219E-1,-6.072000265E-1,-1.099138498E0
2.424672520E-1,-1.431519091E-1,-6.437472105E-1,-1.221224308E0
2.623203770E-1,-1.514073163E-1,-5.848249197E-1,-1.106433988E0
2.821735020E-1,-1.446528882E-1,-4.600687921E-1,-8.208807111E-1
3.020266270E-1,-1.485798806E-1,-4.128401875E-1,-7.607715726E-1
3.218781890E-1,-1.596278101E-1,-4.674515426E-1,-9.958848953E-1
3.417313140E-1,-1.785471886E-1,-5.339660048E-1,-1.285836458E0
3.615828770E-1,-2.030166984E-1,-5.732184649E-1,-1.497649550E0
3.814360020E-1,-2.332108915E-1,-5.774945617E-1,-1.602299571E0
4.012891270E-1,-2.552718520E-1,-5.487140417E-1,-1.590902567E0
4.211406890E-1,-2.663896084E-1,-5.270894170E-1,-1.585439682E0
4.409938140E-1,-2.714510560E-1,-5.060756803E-1,-1.567672133E0
4.608469390E-1,-2.773153782E-1,-4.774522781E-1,-1.517686009E0
4.806985020E-1,-2.914874256E-1,-4.365243018E-1,-1.429878473E0
5.005516270E-1,-3.301639259E-1,-3.853163421E-1,-1.315698981E0
5.204047520E-1,-3.601137698E-1,-3.672696352E-1,-1.273200274E0
5.402563140E-1,-3.956137896E-1,-3.404962718E-1,-1.211310863E0
5.601094390E-1,-4.377285838E-1,-3.042981625E-1,-1.132055402E0
5.799625640E-1,-4.859869182E-1,-2.650282383E-1,-1.051403761E0
5.998156890E-1,-5.456597209E-1,-1.989151686E-1,-9.061749578E-1
6.196672520E-1,-6.161710620E-1,-1.148426607E-1,-7.194770575E-1
6.395219390E-1,-6.813067198E-1,-3.218387067E-2,-5.431813598E-1
6.593735020E-1,-7.465645671E-1,4.782202095E-2,-3.940080702E-1
6.792250640E-1,-8.811818361E-1,1.749867052E-1,-1.540253013E-1
6.990781890E-1,-1.120396614E0,3.376339376E-1,8.895943314E-2
7.189313140E-1,-1.244768858E0,4.316897392E-1,2.232799679E-1
7.387828770E-1,-1.340482712E0,5.113640428E-1,3.563264310E-1
7.586360020E-1,-1.438605070E0,5.857150555E-1,4.838925302E-1
7.784891270E-1,-1.525208354E0,6.405009031E-1,5.603902936E-1
7.983422520E-1,-1.601025462E0,6.928957105E-1,6.625269651E-1
8.181938140E-1,-1.668779135E0,7.417125702E-1,7.987673879E-1
8.380531890E-1,-1.718870044E0,7.752752304E-1,9.205564857E-1
8.579000640E-1,-1.766465187E0,8.030259609E-1,1.009306431E0
8.777516270E-1,-1.773970127E0,8.073369265E-1,1.026497960E0
8.976047520E-1,-1.734386086E0,7.802843451E-1,1.006479025E0
9.174578770E-1,-1.689880133E0,7.528651953E-1,9.671393037E-1
9.373110020E-1,-1.687995195E0,7.561988235E-1,9.184969664E-1
9.571625640E-1,-1.751682281E0,7.997622490E-1,9.092467427E-1
9.770156890E-1,-1.763585448E0,8.094487786E-1,9.088103771E-1
9.968688140E-1,-1.701870561E0,7.629706860E-1,8.932071328E-1
1.016720377E0,-1.661850095E0,7.319037914E-1,8.724377155E-1
1.036573502E0,-1.702463984E0,7.726572752E-1,8.231845498E-1
1.056426627E0,-1.749936938E0,8.472700715E-1,7.062300444E-1
1.076278189E0,-1.754579544E0,8.816356063E-1,6.223844290E-1
1.096131314E0,-1.721802235E0,8.719141483E-1,5.846154690E-1
1.115984439E0,-1.666457772E0,8.304451108E-1,5.786988139E-1
1.135836002E0,-1.606610537E0,7.629532218E-1,6.087359190E-1
1.155689127E0,-1.560900331E0,6.908362508E-1,6.579018831E-1
1.175542252E0,-1.577829957E0,6.656162143E-1,7.050781250E-1
1.195395377E0,-1.636857033E0,6.762976050E-1,7.438593507E-1
1.215246939E0,-1.627275229E0,6.336767077E-1,7.610857487E-1
1.235100064E0,-1.596784234E0,5.564458966E-1,7.782074213E-1
1.254953189E0,-1.585893393E0,4.927937090E-1,8.009490371E-1
1.274804752E0,-1.574269533E0,4.455825686E-1,8.027293086E-1
1.294657877E0,-1.541631818E0,4.478165805E-1,7.567573190E-1
1.314511002E0,-1.486444592E0,5.164952874E-1,6.721612215E-1
1.334364127E0,-1.406752825E0,5.997126102E-1,5.788035393E-1
1.354215689E0,-1.305261970E0,6.638185382E-1,4.911705554E-1
1.374068814E0,-1.188604116E0,7.356562614E-1,4.030314386E-1
1.393921939E0,-1.056657195E0,8.192051649E-1,3.174753785E-1
1.413775064E0,-9.227381349E-1,9.058258533E-1,2.408379763E-1
1.433626627E0,-7.930252552E-1,9.947853088E-1,1.731541157E-1
1.453479752E0,-6.705206037E-1,1.077862978E0,1.177224591E-1
1.473332877E0,-5.709844828E-1,1.134865403E0,8.042477071E-2
1.493184439E0,-4.966159761E-1,1.169422984E0,5.984733999E-2
1.513037564E0,-4.188441038E-1,1.211712241E0,4.708898440E-2
1.532889127E0,-3.398679495E-1,1.258190393E0,4.141666368E-2
1.552742252E0,-2.383596152E-1,1.314616919E0,3.286454827E-2
1.572595377E0,-1.217018068E-1,1.373713732E0,2.801253460E-2
1.592448502E0,-2.905973233E-2,1.425166011E0,3.038618155E-2
1.612301627E0,5.619960278E-2,1.474087596E0,3.080506064E-2
1.632153189E0,1.437278688E-1,1.509797096E0,2.584832534E-2
1.652004752E0,2.839301527E-1,1.494176388E0,2.118829638E-2
1.671857877E0,4.120024145E-1,1.458571672E0,2.254965343E-2
1.691711002E0,5.184849501E-1,1.420156956E0,2.162462845E-2
1.711564127E0,6.154205203E-1,1.411796808E0,2.879793290E-3
1.731415689E0,6.861587167E-1,1.434416294E0,-3.562216833E-2
1.751268814E0,7.313278317E-1,1.419301748E0,-6.328564137E-2
1.771121939E0,7.189360261E-1,1.341076136E0,-5.632177368E-2
1.790973502E0,6.824411750E-1,1.240946531E0,-3.911282867E-2
1.810826627E0,6.522644162E-1,1.151428580E0,-2.968805097E-2
1.830678189E0,6.183875799E-1,1.065750360E0,-2.220058814E-2
1.850531314E0,5.664640665E-1,9.710662961E-1,-1.202531811E-2
1.870384439E0,5.092521906E-1,8.677777052E-1,1.466076588E-3
1.890236002E0,3.658035696E-1,6.353696585E-1,9.398598224E-2
1.910090689E0,3.144036233E-1,5.180486441E-1,1.188569218E-1
1.929942252E0,2.290570140E-1,4.206243455E-1,1.314058453E-1
1.949795377E0,2.408379763E-1,3.389953077E-1,1.316850930E-1
1.969646939E0,4.262443185E-1,3.127804399E-1,1.002691686E-1
1.989500064E0,6.667681336E-1,3.258005977E-1,3.923500329E-2
2.009353189E0,6.622128487E-1,2.718524933E-1,6.719517522E-3
2.029206314E0,4.466995597E-1,1.508662552E-1,2.338741207E-3
2.049057877E0,2.746450007E-1,1.473057922E-2,9.110618383E-3
2.068911002E0,2.282367051E-1,-5.605997518E-2,-2.944370359E-2
2.088764127E0,8.026769012E-2,-1.813222617E-1,-7.028441131E-2
2.108615689E0,-1.980425119E-1,-3.991568089E-1,-1.092925146E-1
2.128468814E0,-6.549871564E-1,-7.852934599E-1,-1.147030368E-1
2.148321939E0,-1.431292176E0,-1.442793846E0,-5.096361414E-2
2.168173502E0,-2.422290087E0,-2.309960604E0,7.122688740E-2
2.188026627E0,-3.169064045E0,-3.209677935E0,2.629687488E-1
2.207879752E0,-3.033748865E0,-3.192451477E0,2.705260217E-1
2.227732877E0,-2.766957760E0,-2.991581678E0,2.721317410E-1
2.247586002E0,-2.525630951E0,-2.836072683E0,2.839127183E-1
2.267437564E0,-2.287463427E0,-2.666391850E0,2.924124599E-1
2.287290689E0,-2.056556463E0,-2.401328802E0,2.600016892E-1
2.307142252E0,-1.852021217E0,-2.154207468E0,2.187944800E-1
2.326995377E0,-1.687035203E0,-1.955833435E0,1.904154271E-1
2.346848502E0,-1.570674181E0,-1.844184637E0,2.006954104E-1
2.366700064E0,-1.483372808E0,-1.822036505E0,2.538406849E-1
2.386553189E0,-1.383295655E0,-1.764684916E0,2.868623137E-1
2.406406314E0,-1.290932775E0,-1.686354518E0,2.933898568E-1
2.426259439E0,-1.192234397E0,-1.584095716E0,2.798461020E-1
2.446111002E0,-1.088858604E0,-1.471853614E0,2.595653534E-1
2.465964127E0,-9.562309980E-1,-1.349593282E0,1.673770696E-1
2.485817252E0,-8.052076697E-1,-1.226879239E0,1.137954649E-2
2.505668814E0,-6.512521505E-1,-1.114392757E0,-1.607797295E-1
2.525521939E0,-5.505815744E-1,-9.658651948E-1,-2.363001257E-1
2.545375064E0,-4.588819742E-1,-8.560490608E-1,-2.956936955E-1
2.565226627E0,-3.866602480E-1,-7.884001136E-1,-3.304606378E-1
2.585079752E0,-3.306351602E-1,-7.444178462E-1,-3.460987806E-1
2.604932877E0,-2.966012657E-1,-7.219728827E-1,-3.192556202E-1
2.624784439E0,-2.844712138E-1,-7.156547904E-1,-2.404714674E-1
2.644637564E0,-2.682745457E-1,-7.490603924E-1,-1.553517580E-1
2.664490689E0,-2.315528244E-1,-1.054335952E0,8.276351541E-2
2.684343814E0,-2.214124650E-1,-1.017003298E0,1.219112501E-1
2.704195377E0,-2.097187638E-1,-9.189332724E-1,1.051211804E-1
2.724048502E0,-1.919862181E-1,-8.171457052E-1,5.588544160E-2
2.743901627E0,-1.116312593E-1,-7.556402683E-1,-2.524967790E-1
2.763753189E0,1.742711216E-1,-4.207116067E-1,-7.045196295E-1
2.783606314E0,5.593954921E-1,2.140646279E-1,-1.258120537E0
2.803459439E0,6.824237108E-1,6.840468645E-1,-1.563657880E0
2.823311002E0,6.097307801E-1,1.088980675E0,-1.675865173E0
2.843164127E0,4.682543874E-1,1.120937705E0,-1.589157224E0
2.863017252E0,3.600614369E-1,9.982933998E-1,-1.420540929E0
2.882870377E0,3.600614369E-1,9.982933998E-1,-1.420540929E0
2.902721939E0,3.600614369E-1,9.982933998E-1,-1.420540929E0
2.922575064E0,3.600614369E-1,9.982933998E-1,-1.420540929E0
2.942428189E0,3.600614369E-1,9.982933998E-1,-1.420540929E0
2.962279752E0,3.600614369E-1,9.982933998E-1,-1.420540929E0
2.982132877E0,3.600614369E-1,9.982933998E-1,-1.420540929E0
3.001984439E0,1.076972842E0,2.201802731E0,-1.836993933E0
3.021837564E0,1.136348963E0,2.387435913E0,-1.880295515E0
3.041690689E0,1.041019082E0,2.346019268E0,-1.859491229E0
3.061542252E0,8.768184781E-1,2.235644579E0,-1.822211027E0
3.081395377E0,7.161958814E-1,2.118218899E0,-1.756551743E0
3.101248502E0,5.941450000E-1,1.989361167E0,-1.662967205E0
3.121100064E0,4.880289733E-1,1.837116122E0,-1.580290914E0
3.140953189E0,3.973416686E-1,1.656125426E0,-1.535278916E0
3.160806314E0,3.265685439E-1,1.450612903E0,-1.528472066E0
3.180657877E0,2.510656118E-1,1.253914356E0,-1.524614930E0
3.200512564E0,1.721243709E-1,1.118686199E0,-1.440053701E0
3.220364127E0,1.721243709E-1,1.118686199E0,-1.440053701E0
3.240217252E0,1.721243709E-1,1.118686199E0,-1.440053701E0
3.260068814E0,9.358455241E-2,1.003407240E0,-1.408341050E0
3.279928189E0,7.539822254E-3,8.484569192E-1,-1.440437675E0
3.299775064E0,-6.583382189E-2,7.194072604E-1,-1.428150535E0
3.319626627E0,-1.056622341E-1,6.356663704E-1,-1.349471092E0
3.339479752E0,-1.056622341E-1,6.356663704E-1,-1.349471092E0
3.359332877E0,-1.056622341E-1,6.356663704E-1,-1.349471092E0
3.379184439E0,-1.056622341E-1,6.356663704E-1,-1.349471092E0
3.399037564E0,-1.056622341E-1,6.356663704E-1,-1.349471092E0
3.418890689E0,-1.056622341E-1,6.356663704E-1,-1.349471092E0
3.438743814E0,-1.285260469E-1,5.759586692E-1,-1.276184797E0
3.458595377E0,-2.219360620E-1,5.411567688E-1,-1.198657274E0
3.478448502E0,-3.646865487E-1,5.002288222E-1,-1.146367192E0
3.498301627E0,-4.969126880E-1,4.253018200E-1,-1.139036775E0
3.518153189E0,-5.869018435E-1,3.189414740E-1,-1.165042162E0
3.538006314E0,-6.262764931E-1,2.109230459E-1,-1.189406991E0
3.557859439E0,-6.227684021E-1,1.289972812E-1,-1.185898900E0
3.577712564E0,-5.951921940E-1,5.368632823E-2,-1.177870393E0
3.597564127E0,-5.462008119E-1,-3.214896470E-2,-1.186684251E0
3.617417252E0,-4.514293969E-1,-1.021715775E-1,-1.191274524E0
3.637270377E0,-3.976209164E-1,-1.145634130E-1,-1.131357312E0
3.657121939E0,-3.654370308E-1,-7.499679923E-2,-1.012378216E0
3.676975064E0,-3.341258168E-1,1.007054932E-2,-8.610581756E-1
3.696828189E0,-2.450616807E-1,8.651597053E-2,-7.437546253E-1
3.716679752E0,-1.469392627E-1,1.224697530E-1,-6.804689765E-1
3.736532877E0,8.377580671E-4,1.422094256E-1,-6.518106461E-1
3.756386002E0,2.603682280E-1,1.193630695E-1,-6.910107732E-1
3.776237564E0,4.815188944E-1,2.472258806E-1,-6.242868304E-1
3.796090689E0,6.027145386E-1,3.848276436E-1,-5.533391833E-1
3.815943814E0,6.671695709E-1,5.128824711E-1,-5.114687085E-1
3.835796939E0,7.190058231E-1,6.291388273E-1,-5.079082847E-1
3.855648502E0,6.387381554E-1,7.359704375E-1,-5.232671499E-1
3.875501627E0,6.387381554E-1,7.359704375E-1,-5.232671499E-1
3.895354752E0,5.027769804E-1,8.990365267E-1,-5.297423601E-1
3.915206314E0,3.600788713E-1,1.071579814E0,-5.940228105E-1
3.935059439E0,4.331907257E-2,1.160574079E0,-7.653967142E-1
3.954912564E0,-2.841221392E-1,1.818126917E0,-9.039583802E-1
3.974770377E0,-5.924171209E-1,3.491600990E0,-1.141096234E0
3.994617252E0,-1.102890968E0,6.459638119E0,-1.572087884E0
4.014470377E0,-1.432304502E0,8.354175568E0,-1.757267356E0
4.034323502E0,-1.534964681E0,8.923100471E0,-1.732623219E0
4.054175064E0,-1.490493774E0,8.770890236E0,-1.651552677E0
4.074028189E0,-1.403331995E0,8.345466614E0,-1.578824878E0
4.093879752E0,-1.234488845E0,7.444213390E0,-1.444556713E0
4.113732877E0,-1.091930389E0,6.643194199E0,-1.313395143E0
4.133586002E0,-9.697747231E-1,5.924851894E0,-1.182809591E0
4.153437564E0,-8.519999385E-1,5.277317047E0,-1.063132405E0
4.173290689E0,-7.592182159E-1,4.702528000E0,-9.467014670E-1
4.193143814E0,-6.868219376E-1,4.196835995E0,-8.365188837E-1
4.212996939E0,-6.196966171E-1,3.753801823E0,-7.348534465E-1
4.232848502E0,-5.594129562E-1,3.362307072E0,-6.318266392E-1
4.252701627E0,-5.224119425E-1,3.011198997E0,-4.862487316E-1
4.272554752E0,-4.679402113E-1,2.699745178E0,-3.642327487E-1
4.292406314E0,-4.120024145E-1,2.424349546E0,-2.439446747E-1
4.312259439E0,-3.726801574E-1,2.181382418E0,-1.442689151E-1
4.332111002E0,-3.556282818E-1,1.968312502E0,-7.295475900E-2
4.351964127E0,-3.534466326E-1,1.780794382E0,-2.426007576E-2
4.371817252E0,-3.632030189E-1,1.611427546E0,1.553343027E-3
4.391668814E0,-3.677757680E-1,1.454906464E0,8.377579972E-3
4.411521939E0,-3.976383507E-1,1.306658149E0,-6.981316837E-4
4.431375064E0,-6.089977622E-1,1.127063870E0,-5.981243402E-2
4.451228189E0,-7.495840192E-1,9.470156431E-1,-1.157502383E-1
4.471079752E0,-7.863057256E-1,7.930775881E-1,-1.254717261E-1
4.490932877E0,-8.103738427E-1,6.538352370E-1,-1.011069268E-1
4.510786002E0,-7.727445364E-1,5.373694301E-1,-8.148942143E-2
4.530637564E0,-6.666459441E-1,5.268974304E-1,-7.342600077E-2
4.550490689E0,-5.634272099E-1,4.912054539E-1,-6.047565863E-2
4.570343814E0,-4.697204530E-1,4.950975478E-1,-1.308996929E-3
4.590196939E0,-3.733782768E-1,5.187816620E-1,4.361577705E-2
4.610048502E0,-3.056071401E-1,5.135631561E-1,6.250023842E-2
4.629901627E0,-2.449395061E-1,5.062152743E-1,6.487388909E-2
4.649754752E0,-1.711295396E-1,5.029166341E-1,6.595598906E-2
4.669612564E0,-1.044230461E-1,5.013982058E-1,7.017968595E-2
4.689459439E0,-7.899360359E-2,4.855331481E-1,8.391542733E-2
4.709312564E0,-8.258897811E-2,4.612207115E-1,1.096590385E-1
4.729164127E0,-9.950122237E-2,4.323180616E-1,1.406735331E-1
4.749017252E0,-1.096066758E-1,4.052829146E-1,1.707630157E-1
4.768870377E0,-1.052782610E-1,3.789807856E-1,1.830501258E-1
4.788723502E0,-9.936159104E-2,3.481757343E-1,1.726654172E-1
4.808575064E0,-9.253735840E-2,3.142814338E-1,1.474105120E-1
4.828428189E0,-7.545058429E-2,2.792177796E-1,1.160294861E-1
4.848281314E0,-3.092723340E-2,2.432639897E-1,4.440117627E-2
4.868132877E0,1.392772701E-2,2.117084414E-1,-3.534291685E-2
4.887986002E0,3.518583626E-2,1.743758470E-1,-8.272860944E-2
4.907839127E0,5.089380220E-2,1.140223593E-1,-1.120675877E-1
4.927690689E0,8.363617957E-2,6.250023842E-2,-1.402372122E-1
4.947543814E0,1.645670980E-1,4.539601505E-2,-1.678483188E-1
4.967396939E0,3.550348878E-1,4.113740847E-2,-2.032959461E-1
4.987250064E0,5.825734735E-1,4.865977913E-2,-2.072753012E-1
5.007107877E0,6.590188742E-1,4.134684801E-2,-1.621759981E-1
5.026954752E0,6.639407277E-1,2.122320421E-2,-1.370258033E-1
5.046807877E0,5.918760300E-1,-9.337511845E-3,-1.047023013E-1
5.066659439E0,4.018795192E-1,-5.351179466E-2,-4.340633750E-2
5.086512564E0,2.906147838E-1,-8.363617957E-2,-9.302604944E-3
5.106365689E0,2.498264313E-1,-1.005658731E-1,-6.789330859E-3
5.126217252E0,1.937315464E-1,-1.280722618E-1,-1.932079531E-2
5.146070377E0,1.203404516E-1,-1.639562249E-1,-6.300638616E-2
5.165923502E0,5.965535343E-2,-1.901012659E-1,-9.913469851E-2
5.185776627E0,2.097885683E-2,-1.940282583E-1,-8.951793611E-2
5.205628189E0,-2.647664398E-2,-1.980774105E-1,-8.251916617E-2
5.225481314E0,-6.206390634E-2,-1.886526346E-1,-5.007349700E-2
5.245334439E0,-6.270968169E-2,-1.630835682E-1,-3.136356547E-2
5.265186002E0,-3.857177496E-2,-1.327672005E-1,-3.747221828E-2
5.285039127E0,-1.235693134E-2,-1.037423685E-1,-4.405210912E-2
5.304892252E0,-5.113814492E-3,-8.480554819E-2,-4.632103816E-2
5.324745377E0,7.155850064E-3,-6.571164727E-2,-5.146975815E-2
5.344596939E0,3.848451003E-2,-3.316125646E-2,-5.091125518E-2
5.364454752E0,7.403686643E-2,7.557275705E-3,-5.302310362E-2
5.384303189E0,8.794713765E-2,4.312708601E-2,-4.975933582E-2
5.404154752E0,7.634069771E-2,6.932447851E-2,-3.844960406E-2
5.424007877E0,4.731587693E-2,8.728391677E-2,-2.057743259E-2
5.443859439E0,1.802925020E-2,1.010022014E-1,-7.801621687E-3
5.463712564E0,-1.745329238E-3,1.159247681E-1,7.749261800E-3
5.483565689E0,-1.480039209E-2,1.350361258E-1,2.715732343E-2
5.503417252E0,-2.520255372E-2,1.529082954E-1,3.841469809E-2
5.523270377E0,-3.740240633E-2,1.666789502E-1,3.780383244E-2
5.543123502E0,-4.878195375E-2,1.783552021E-1,3.408627957E-2
5.562976627E0,-6.099925563E-2,1.899790913E-1,3.431317210E-2
5.582829752E0,-8.021533489E-2,1.944820434E-1,2.663372457E-2
5.602681314E0,-1.353502870E-1,1.780061275E-1,-5.637413356E-3
5.622534439E0,-2.549577057E-1,1.399405003E-1,-3.691371530E-2
5.642386002E0,-4.529478550E-1,8.738863468E-2,-2.129301662E-3
5.662239127E0,-5.525363088E-1,8.929104358E-2,1.230980754E-1
5.682090689E0,-5.002113581E-1,1.174082980E-1,1.574112475E-1
5.701945377E0,-4.353374839E-1,1.398706883E-1,1.698379815E-1
5.721796939E0,-3.800279796E-1,1.558404416E-1,1.810081005E-1
5.741650064E0,-3.274935782E-1,1.756848395E-1,2.279225439E-1
5.761501627E0,-2.394766212E-1,2.200685591E-1,3.088534772E-1
5.781354752E0,-1.444609016E-1,2.533869147E-1,3.557155430E-1
5.801207877E0,-8.717919886E-2,2.612932324E-1,3.646341860E-1
5.821059439E0,-2.600540593E-2,2.671575546E-1,3.631681204E-1
5.840912564E0,4.010766745E-2,2.637366951E-1,3.466922045E-1
5.860765689E0,8.580038697E-2,2.429847419E-1,3.243170679E-1
5.880617252E0,9.009389579E-2,2.064026296E-1,3.047693968E-1
5.900470377E0,5.852089077E-2,1.618792862E-1,2.907544076E-1
5.920323502E0,1.525417715E-2,1.162738353E-1,2.782403827E-1
5.940176627E0,-2.495820820E-2,7.515387982E-2,2.607172728E-1
5.960028189E0,-3.183480725E-2,9.215338156E-3,2.335948646E-1
5.979881314E0,-2.597049996E-2,-3.139847144E-2,1.989500821E-1
5.999734439E0,-5.986479111E-3,-8.105309308E-2,1.394867152E-1
6.019586002E0,7.724827528E-2,-1.375842988E-1,1.780235767E-2
6.039439127E0,1.921432912E-1,-1.828232408E-1,-9.983283281E-2
6.059296939E0,2.503325641E-1,-2.232450694E-1,-1.348965019E-1
6.079145377E0,2.530902028E-1,-2.704213262E-1,-1.353677362E-1
6.098996939E0,2.741737664E-1,-3.159918487E-1,-1.352106631E-1
6.118850064E0,3.119775951E-1,-3.556108475E-1,-1.262745708E-1
6.138703189E0,3.540923893E-1,-3.967482448E-1,-1.048244759E-1
6.158554752E0,4.055795968E-1,-4.394564629E-1,-7.583455741E-2
6.178407877E0,4.739441574E-1,-4.791277945E-1,-4.281292483E-2
6.198261002E0,5.596398115E-1,-5.110324025E-1,2.787290886E-2
6.218112564E0,6.394711733E-1,-5.215218067E-1,1.644623727E-1
6.237965689E0,6.501874924E-1,-5.543863773E-1,2.820102870E-1
6.257818814E0,7.184298635E-1,-6.010390520E-1,3.478964865E-1
6.277671939E0,6.762802005E-1,-7.016921639E-1,3.645294607E-1
6.297523502E0,5.881934166E-1,-8.556476831E-1,3.535338938E-1
6.317376627E0,5.770407319E-1,-1.053655267E0,1.441292912E-1
6.337229752E0,6.831218600E-1,-1.237403512E0,-3.766420484E-2
6.357081314E0,7.035945654E-1,-1.434713006E0,-1.669756472E-1
6.376934439E0,6.613227129E-1,-1.584444761E0,-1.980075985E-1
6.396787564E0,6.227684021E-1,-1.694226027E0,-1.591740251E-1
6.416640689E0,6.076538563E-1,-1.844289422E0,-1.490860283E-1
6.436492252E0,5.909859538E-1,-2.054217577E0,-1.220508739E-1
6.456345377E0,5.885599256E-1,-2.296364546E0,-2.083923109E-2
6.476196939E0,6.097656488E-1,-2.533869028E0,1.272170544E-1
6.496050064E0,6.595599055E-1,-2.810852766E0,2.974215448E-1
6.515903189E0,7.215714455E-1,-3.131312609E0,4.732983708E-1
6.535762564E0,7.985230088E-1,-3.524535418E0,6.546381116E-1
6.555607877E0,8.975180984E-1,-3.982387543E0,8.843408823E-1
6.575461002E0,9.748536348E-1,-4.437185287E0,1.092558622E0
6.595314127E0,8.556302190E-1,-4.053789139E0,1.069101453E0
6.615165689E0,7.368954420E-1,-3.761184454E0,1.072592139E0
6.635018814E0,6.170786023E-1,-3.511096239E0,1.066762686E0
6.654871939E0,4.883256555E-1,-3.294815063E0,1.031646609E0
6.674729752E0,3.718947470E-1,-3.080401421E0,9.661444426E-1
6.694576627E0,2.848202884E-1,-2.867401361E0,8.842710853E-1
6.714429752E0,2.316924632E-1,-2.661469936E0,8.034448624E-1
6.734281314E0,2.092300653E-1,-2.470897436E0,7.374714017E-1
6.754140689E0,2.009397596E-1,-2.311357021E0,6.895446777E-1
6.773987564E0,1.760513633E-1,-2.195187807E0,6.523342729E-1
6.793839127E0,1.057320461E-1,-2.138202906E0,6.262764931E-1
6.813692252E0,-2.167349905E-1,-2.305579901E0,6.458416581E-1
6.833543814E0,-4.367511868E-1,-2.362058878E0,6.096260548E-1
6.853396939E0,-5.699023604E-1,-2.296835899E0,4.758116603E-1
6.873250064E0,-5.872334838E-1,-2.121517420E0,3.020117581E-1
6.893103189E0,-6.981840730E-1,-1.998733640E0,1.046150327E-1
6.912954752E0,-6.020338535E-1,-1.791248918E0,-4.382521659E-2
6.932807877E0,-4.740314186E-1,-1.682986140E0,-4.696680978E-2
6.952661002E0,-3.736575246E-1,-1.675777912E0,-2.680825815E-2
6.972514127E0,-3.057991266E-1,-1.758576274E0,8.445648104E-2
6.992365689E0,-2.225992978E-1,-1.860468626E0,2.901260853E-1
7.012218814E0,-1.186300293E-1,-1.833765030E0,3.632204831E-1
7.032070377E0,-7.394959778E-2,-1.736148834E0,3.402519226E-1
7.051923502E0,-2.031563222E-2,-1.618059874E0,3.294658065E-1
7.071776627E0,8.185594343E-3,-1.500895858E0,3.176150024E-1
7.091629752E0,1.041961554E-2,-1.387850881E0,2.866877913E-1
7.111481314E0,5.724680144E-3,-1.272711515E0,2.288824767E-1
7.131334439E0,2.495820867E-3,-1.157554746E0,1.539380401E-1
7.151187564E0,8.220500313E-3,-1.053672671E0,9.752900153E-2
7.171039127E0,1.441641990E-2,-9.566673040E-1,5.054473504E-2
7.190892252E0,2.563888580E-2,-8.551065922E-1,-2.823942713E-2
7.210745377E0,4.597197101E-2,-7.603701353E-1,-1.094321460E-1
7.230598502E0,9.000662714E-2,-6.679549813E-1,-1.850398034E-1
7.250450064E0,1.465552896E-1,-5.852438211E-1,-2.306801677E-1
7.270303189E0,1.953023374E-1,-5.163207650E-1,-2.500882149E-1
7.290156314E0,2.439097613E-1,-4.512548745E-1,-2.520779073E-1
7.310007877E0,3.183306158E-1,-3.810926378E-1,-2.428451180E-1
7.329861002E0,4.331209064E-1,-3.055198789E-1,-2.279050946E-1
7.349714127E0,4.992339909E-1,-2.453234792E-1,-2.057045102E-1
7.369565689E0,5.543514490E-1,-1.909215599E-1,-1.890540570E-1
7.389418814E0,5.689773560E-1,-1.392772794E-1,-2.207143307E-1
7.409271939E0,4.427725673E-1,-1.354026496E-1,-2.400351316E-1
7.429125064E0,3.383495212E-1,-1.366418302E-1,-2.113942802E-1
7.448982877E0,2.980149686E-1,-1.241452694E-1,-1.970476657E-1
7.468829752E0,3.087138236E-1,-7.784168422E-2,-3.759264648E-1
7.488682877E0,2.679778636E-1,-6.497860700E-2,-4.448146224E-1
7.508534439E0,2.362303138E-1,-5.895722285E-2,-4.002737999E-1
7.528387564E0,1.761560738E-1,-6.244787946E-2,-3.515267670E-1
7.548240689E0,9.899507463E-2,-7.911577821E-2,-2.480461895E-1
7.568092252E0,3.441789374E-2,-8.791223168E-2,-1.463982165E-1
7.587945377E0,-5.410520826E-3,-8.344419301E-2,-7.569492608E-2
7.607798502E0,-6.876597181E-3,-7.169812173E-2,-7.539822254E-3
7.627651627E0,1.441641990E-2,-5.653121322E-2,4.920083284E-2
7.647509439E0,3.523819894E-2,-4.461061582E-2,8.442157507E-2
7.667356314E0,3.790855035E-2,-4.150392860E-2,1.012116447E-1
7.687209439E0,4.862487316E-2,-3.323106840E-2,1.090656221E-1
7.707061002E0,6.300638616E-2,-2.143264376E-2,1.169196069E-1
7.726914127E0,5.927138031E-2,-9.843656793E-3,1.206546128E-1
7.746767252E0,4.120722413E-2,-2.443460980E-3,1.295034289E-1
7.766620377E0,2.251474746E-2,1.012290944E-3,1.458397061E-1
7.786471939E0,7.766715251E-3,2.426007763E-3,1.799783558E-1
7.806325064E0,-4.694935866E-3,3.560471581E-3,2.271022350E-1
7.826178189E0,-2.382374369E-2,3.385938704E-3,2.716255784E-1
7.846029752E0,-5.167919770E-2,3.455751808E-3,3.009645641E-1
7.865882877E0,-7.780677825E-2,6.998770405E-3,3.066717982E-1
7.885736002E0,-1.026079059E-1,1.232202444E-2,2.938785255E-1
7.905587564E0,-1.226791963E-1,1.919862255E-2,2.788338065E-1
7.925440689E0,-1.450892240E-1,2.481858246E-2,2.657089233E-1
7.945293814E0,-1.762084365E-1,2.522000670E-2,2.534218132E-1
7.965145377E0,-2.194925994E-1,2.150245570E-2,2.357590795E-1
7.984998502E0,-2.806489468E-1,1.298524998E-2,2.066818923E-1
8.004851627E0,-5.070704818E-1,-3.864159063E-2,1.890017092E-1
8.024709439E0,-6.379876733E-1,-1.165530905E-1,3.200584650E-1
8.044556314E0,-5.919284225E-1,-1.757022887E-1,4.643099308E-1
8.064409439E0,-5.131442547E-1,-1.963669956E-1,4.405036569E-1
8.084262564E0,-3.995233178E-1,-2.181487083E-1,4.180237949E-1
8.104114127E0,-2.902831733E-1,-2.321985960E-1,3.518758416E-1
8.123967252E0,-1.959830225E-1,-2.677684128E-1,3.260973096E-1
8.143826627E0,-1.545314491E-1,-3.128502667E-1,3.052406311E-1
8.163671939E0,-1.115963534E-1,-3.423463404E-1,2.887123525E-1
8.183525064E0,-5.305800959E-2,-3.401646614E-1,2.698104382E-1
8.203378189E0,1.118756086E-2,-3.242298067E-1,2.552543879E-1
8.223229752E0,6.822492182E-2,-2.987480164E-1,2.425658554E-1
8.243082877E0,8.244935423E-2,-2.770361006E-1,2.346246094E-1
8.262936002E0,5.693263933E-2,-2.583087385E-1,2.275734842E-1
8.282787564E0,2.106612362E-2,-2.388308495E-1,2.181661576E-1
8.302640689E0,-5.061454722E-4,-2.188119292E-1,2.018298805E-1
8.322493814E0,-2.391101094E-3,-2.018124163E-1,1.804321408E-1
8.342345377E0,-5.585053470E-3,-1.717753112E-1,1.536413282E-1
8.362200064E0,-2.565633971E-3,-1.351583004E-1,1.277930140E-1
8.382050064E0,1.085594762E-2,-9.909979254E-2,1.063603610E-1
8.401904752E0,3.073524870E-2,-5.885250121E-2,7.260569930E-2
8.421756314E0,1.044579521E-1,3.490658477E-3,-1.277581044E-2
8.441609439E0,1.611287892E-1,4.714134336E-2,-7.632324845E-2
8.461462564E0,1.780410409E-1,6.595598906E-2,-1.014385372E-1
8.481315689E0,2.198416740E-1,8.124507964E-2,-1.161865667E-1
8.501167252E0,2.714859545E-1,8.948303014E-2,-1.132020578E-1
8.521020377E0,3.099181056E-1,9.210102260E-2,-1.008276716E-1
8.540871939E0,3.352952003E-1,9.470156580E-2,-9.060004354E-2
8.560725064E0,3.648785353E-1,9.941395372E-2,-8.330456167E-2
8.580578189E0,4.031535983E-1,1.042136103E-1,-6.103416532E-2
8.600429752E0,4.457745552E-1,1.020144969E-1,-7.016223390E-3
8.620282877E0,4.879940450E-1,8.998917788E-2,8.677776903E-2
8.640136002E0,5.075243115E-1,9.178686142E-2,1.495223492E-1
8.659989127E0,5.406855345E-1,1.347568780E-1,1.215796322E-1
8.679840689E0,5.899910927E-1,2.120400518E-1,-5.937610194E-2
8.699693814E0,4.964414537E-1,2.248856723E-1,-1.458571702E-1
8.719546939E0,4.642575681E-1,2.221105993E-1,-1.579872072E-1
8.739398502E0,5.826432705E-1,2.607347369E-1,-2.456725389E-1
8.759256314E0,5.112069249E-1,2.451664060E-1,-2.669481039E-1
8.779103189E0,4.229281843E-1,2.189515531E-1,-2.709449232E-1
8.798956314E0,3.754377663E-1,1.954943240E-1,-2.677160501E-1
8.818809439E0,2.970201373E-1,1.639213264E-1,-2.665815949E-1
8.838667252E0,2.021963894E-1,1.298524886E-1,-2.692519426E-1
8.858514127E0,1.500634104E-1,1.033234894E-1,-2.670528293E-1
8.878367252E0,1.330813617E-1,8.724901080E-2,-2.774375379E-1
8.898225064E0,1.428028345E-1,8.196066320E-2,-2.940530777E-1
8.918073502E0,1.547932476E-1,7.250097394E-2,-2.926742733E-1
8.937925064E0,1.576730460E-1,4.817108810E-2,-2.681872845E-1
8.957778189E0,1.521577984E-1,6.143558770E-3,-2.261772156E-1
8.977631314E0,1.702568680E-1,-3.942698613E-2,-1.792278588E-1
8.997482877E0,1.792627722E-1,-8.447393775E-2,-1.379682720E-1
9.017340689E0,1.604481190E-1,-1.233075112E-1,-1.052258983E-1
9.037189127E0,1.240405515E-1,-1.537111402E-1,-7.960446924E-2
9.057040689E0,8.292059600E-2,-1.802925169E-1,-4.577998444E-2
9.076893814E0,2.727949619E-2,-2.068564296E-1,-4.380776547E-3
9.096746939E0,-8.449138701E-2,-2.456027269E-1,5.096361414E-2
9.116598502E0,-1.464505792E-1,-2.688330710E-1,7.761479169E-2
9.136451627E0,-1.657364666E-1,-2.807362080E-1,8.951793611E-2
9.156304752E0,-1.745503843E-1,-2.904576957E-1,9.522516280E-2
9.176157877E0,-2.435257882E-1,-3.141069114E-1,1.015432552E-1
9.196009439E0,-3.718773127E-1,-3.546509147E-1,1.352804750E-1
9.215862564E0,-4.638735950E-1,-3.855781257E-1,1.378460974E-1
9.235715689E0,-4.719021320E-1,-3.957708478E-1,1.066745222E-1
9.255567252E0,-4.726002514E-1,-4.026474655E-1,6.597344577E-2
9.275420377E0,-5.111196637E-1,-4.142713547E-1,-1.106538717E-2
9.295273502E0,-5.261993408E-1,-4.361752272E-1,-2.015855350E-2
9.315125064E0,-5.890660882E-1,-4.440466762E-1,-5.621705577E-2
9.334978189E0,-4.497015476E-1,-4.173605740E-1,-4.506440088E-2
9.354831314E0,-4.059286714E-1,-4.017922580E-1,-3.389429301E-2
9.374682877E0,-3.837629855E-1,-3.974114656E-1,4.356341809E-2
9.394536002E0,-3.236713111E-1,-3.863984346E-1,1.388060302E-1
9.414389127E0,-2.485174239E-1,-3.612307906E-1,1.774999797E-1
9.434240689E0,-2.174156606E-1,-3.346319795E-1,1.880417764E-1
9.454093814E0,-1.662600636E-1,-3.070906699E-1,1.938362718E-1
9.473946939E0,-1.124341115E-1,-2.768615782E-1,1.861742735E-1
9.493800064E0,-8.742354065E-2,-2.474527806E-1,1.647241712E-1
9.513651627E0,-7.251843065E-2,-2.212030292E-1,1.491732895E-1
9.533509439E0,-6.539748609E-2,-2.005034238E-1,1.441991031E-1
9.553357877E0,-6.452482194E-2,-1.842369586E-1,1.444085389E-1
9.573209439E0,-6.258750707E-2,-1.676563323E-1,1.413367689E-1
9.593062564E0,-5.681046844E-2,-1.447227001E-1,1.243721619E-1
9.612914127E0,-4.954989627E-2,-1.133940443E-1,9.897761792E-2
9.632767252E0,-4.368559271E-2,-7.677703351E-2,7.108726352E-2
9.652620377E0,-3.776892647E-2,-3.824016452E-2,4.228932783E-2
9.672473502E0,-2.347467840E-2,5.218534265E-3,-2.478367463E-2
9.692325064E0,5.323254038E-3,5.400048569E-2,-1.302364618E-1
9.712178189E0,6.663667411E-2,1.041612476E-1,-2.242050022E-1
9.732031314E0,1.513200402E-1,1.484227926E-1,-2.563714087E-1
9.751882877E0,2.867226899E-1,1.974141896E-1,-2.512750626E-1
9.771736002E0,5.611059070E-1,2.606823742E-1,-1.972920150E-1
9.791589127E0,5.477017760E-1,2.791654170E-1,-1.649859697E-1
9.811440689E0,3.756297529E-1,2.438050359E-1,-7.148868591E-2
9.831295377E0,2.003463507E-1,2.139075547E-1,-3.933972120E-2
9.851146939E0,1.685813516E-1,2.111150324E-1,-4.162610322E-2
9.871000064E0,1.129228026E-1,2.074498385E-1,-8.257152885E-2
9.890853189E0,-3.586651757E-2,1.818633080E-1,-1.041437984E-1
9.910704752E0,-1.121723130E-1,1.649685204E-1,-1.100953668E-1
9.930557877E0,-1.540776640E-1,1.547932476E-1,-1.040914357E-1
9.950409439E0,-2.017251551E-1,1.431693584E-1,-1.083325893E-1
9.970262564E0,-1.901187152E-1,1.484053433E-1,-1.290321946E-1
9.990115689E0,-1.426283121E-1,1.620189101E-1,-1.560673416E-1
1.000996725E1,-1.041088924E-1,1.736253500E-1,-1.661029905E-1
1.002982194E1,-8.644615859E-2,1.789311469E-1,-1.517738253E-1
1.004967350E1,-7.478735596E-2,1.741838604E-1,-1.213527396E-1
1.006952663E1,-5.728170648E-2,1.650557816E-1,-9.248499572E-2
1.008937819E1,-4.098033160E-2,1.587376893E-1,-7.930775732E-2
1.010923131E1,-1.930334233E-2,1.543045640E-1,-5.747369304E-2
1.012908444E1,4.433136433E-3,1.500983089E-1,-9.023352526E-3
1.014893600E1,1.684242673E-2,1.446179748E-1,4.497713596E-2
1.016878913E1,1.387536712E-2,1.374970376E-1,8.391542733E-2
1.018864225E1,5.986479111E-3,1.326799244E-1,9.801769257E-2
1.020849381E1,1.867502346E-3,1.288052946E-1,1.027824357E-1
1.022834850E1,-1.157153305E-2,1.226791963E-1,1.059240326E-1
1.024820006E1,-2.628465928E-2,1.157502383E-1,1.140049100E-1
1.026805163E1,-5.544910952E-2,1.005833223E-1,1.570272744E-1
1.028790475E1,-6.667158008E-2,8.281587064E-2,2.275036722E-1
1.030775788E1,-7.234390080E-2,6.829473376E-2,2.749242485E-1
1.032761100E1,-8.147197217E-2,5.941100791E-2,2.738421559E-1
1.034746256E1,-9.066985548E-2,5.021312088E-2,2.569473684E-1
1.036731569E1,-1.103571653E-1,3.689625859E-2,2.253045589E-1
1.038716881E1,-2.223200351E-1,8.813912980E-3,1.645321846E-1
1.040702038E1,-5.638111830E-1,-6.162757427E-2,1.153139025E-1
1.042687350E1,-6.924244761E-1,-1.238660142E-1,1.753706783E-1
1.044672663E1,-6.478487849E-1,-1.392249167E-1,1.863313466E-1
1.046657819E1,-4.751484394E-1,-1.194154248E-1,1.529606581E-1
1.048643131E1,-4.151614606E-1,-1.133591309E-1,1.383522451E-1
1.050628444E1,-2.776120603E-1,-8.908160776E-2,1.044928655E-1
1.052613756E1,-1.103746220E-1,-6.459463388E-2,9.210102260E-2
1.054598913E1,-6.668902934E-2,-6.017895415E-2,9.679596126E-2
1.056584225E1,-3.431317210E-2,-5.808455870E-2,9.782570601E-2
1.058569538E1,3.246312495E-3,-6.232570857E-2,1.267109066E-1
1.060554694E1,1.439896598E-2,-7.187265903E-2,1.584409922E-1
1.062540006E1,-1.937315450E-3,-8.454374969E-2,1.867502332E-1
1.064525163E1,-1.370083448E-2,-8.787732571E-2,1.796467453E-1
1.066510475E1,-1.666789502E-2,-8.115781099E-2,1.391201913E-1
1.068495788E1,-1.556833647E-2,-7.059856504E-2,9.190903604E-2
1.070481100E1,-1.153662615E-2,-6.421066076E-2,6.208136305E-2
1.072466256E1,1.439896598E-2,-4.260348529E-2,-2.483603545E-2
1.074451569E1,2.994984947E-2,-3.717551380E-2,-6.927211583E-2
1.076436881E1,3.619812801E-2,-3.394665569E-2,-1.214923710E-1
1.078422038E1,4.738568887E-2,-2.946115844E-2,-1.782504767E-1
1.080407350E1,6.724753231E-2,-2.420771681E-2,-2.193704396E-1
1.082392663E1,1.032536775E-1,-1.799434423E-2,-2.419375330E-1
1.084377819E1,1.460316926E-1,-1.282817032E-2,-2.521826327E-1
1.086363288E1,1.889318973E-1,-9.302604944E-3,-2.543642819E-1
1.088348444E1,2.450267673E-1,-4.904375412E-3,-2.545911670E-1
1.090333756E1,3.279648125E-1,4.660028964E-3,-2.619913816E-1
1.092319069E1,4.470311701E-1,2.431243658E-2,-2.816612422E-1
1.094304225E1,5.823988914E-1,4.886921868E-2,-3.028146327E-1
1.096289538E1,6.715852618E-1,6.113888323E-2,-2.935818434E-1
1.098275319E1,6.962118149E-1,6.059783325E-2,-2.732312977E-1
1.100260006E1,6.921626925E-1,5.677555874E-2,-2.476622164E-1
1.102245319E1,5.609837174E-1,5.183627829E-2,-3.500432372E-1
1.104230475E1,4.837529063E-1,4.515166581E-2,-3.827856183E-1
1.106215788E1,4.409225285E-1,3.612831607E-2,-3.522248864E-1
1.108201100E1,4.092797041E-1,3.480186686E-2,-3.571467102E-1
1.110186256E1,3.755250275E-1,3.558726236E-2,-3.876376152E-1
1.112171725E1,3.137229383E-1,1.850049011E-2,-3.405312002E-1
1.114156881E1,2.845759392E-1,1.069886796E-2,-2.977182567E-1
1.116142194E1,2.487094104E-1,1.850049011E-3,-2.588846982E-1
1.118127506E1,2.248333097E-1,-6.161012221E-3,-2.045874894E-1
1.120112663E1,2.147627622E-1,-1.200786512E-2,-1.458397061E-1
1.122097975E1,2.006255984E-1,-1.755801216E-2,-1.165181771E-1
1.124083288E1,1.830152273E-1,-1.926843449E-2,-1.187522039E-1
1.126068444E1,1.640958488E-1,-1.902408898E-2,-1.230457127E-1
1.128053756E1,1.556484550E-1,-1.457349956E-2,-1.190838143E-1
1.130038913E1,1.580919176E-1,-7.574729156E-3,-1.038296372E-1
1.132024381E1,1.527686715E-1,-2.617993858E-3,-7.883652300E-2
1.134009538E1,1.300793886E-1,-4.084070213E-3,-4.640830308E-2
1.135994694E1,9.321803600E-2,-1.068141498E-2,-1.092576142E-2
1.137980006E1,4.063126445E-2,-2.846631967E-2,6.829473376E-2
1.139965319E1,-8.517206647E-3,-4.316199198E-2,1.219112501E-1
1.141950475E1,-4.858996719E-2,-5.422737822E-2,1.657015532E-1
1.143935788E1,-8.602727950E-2,-6.164502725E-2,1.897696555E-1
1.145921100E1,-1.261523962E-1,-6.710790843E-2,1.888271719E-1
1.147906413E1,-1.742187589E-1,-7.297221571E-2,1.769240201E-1
1.149891569E1,-2.247809470E-1,-7.904595882E-2,1.596452594E-1
1.151876881E1,-2.770012021E-1,-8.597491682E-2,1.395216137E-1
1.153862194E1,-3.264638484E-1,-9.484118968E-2,1.240754575E-1
1.155847506E1,-3.670252860E-1,-1.032711342E-1,1.131147891E-1
1.157832663E1,-4.076216519E-1,-1.130973324E-1,1.081755087E-1
1.159817975E1,-4.711865485E-1,-1.318072677E-1,1.238660142E-1
1.161803131E1,-5.809851885E-1,-1.751612425E-1,2.334726900E-1
1.163788444E1,-6.495940685E-1,-2.275909334E-1,4.586550593E-1
1.165773756E1,-6.057513952E-1,-2.593733668E-1,6.576226354E-1
1.167759069E1,-5.809677243E-1,-2.672099173E-1,6.911154985E-1
1.169744225E1,-5.267403722E-1,-2.518160939E-1,6.138148308E-1
1.171729538E1,-4.604527652E-1,-2.304532677E-1,5.265134573E-1
1.173714850E1,-3.318220079E-1,-1.762782484E-1,3.287502229E-1
1.175700163E1,-2.399129570E-1,-1.414414793E-1,2.186373919E-1
1.177685319E1,-2.121098638E-1,-1.326275766E-1,1.905550510E-1
1.179670631E1,-1.819156706E-1,-1.182111502E-1,1.555611938E-1
1.181655944E1,-1.549503356E-1,-1.054178849E-1,1.360309571E-1
1.183641100E1,-1.323657632E-1,-9.543460608E-2,1.400626749E-1
1.185626413E1,-1.157502383E-1,-8.382816613E-2,1.436231434E-1
1.187611725E1,-1.064301804E-1,-7.187265903E-2,1.339365691E-1
1.189597038E1,-1.010894701E-1,-6.792821735E-2,1.409004331E-1
1.191582194E1,-9.416051209E-2,-6.988298148E-2,1.735380888E-1
1.193567506E1,-8.470083028E-2,-5.867796764E-2,2.024232894E-1
1.195552663E1,-7.300712168E-2,-3.476695716E-2,1.946565658E-1
1.197537975E1,-5.663593486E-2,-5.201081280E-3,1.546885371E-1
1.199523131E1,-3.356268257E-2,2.303834632E-2,1.088212803E-1
1.201508444E1,7.522369269E-3,4.918337986E-2,6.775368005E-2
1.203493756E1,5.209807679E-2,7.506661117E-2,1.666789502E-2
1.205479069E1,8.635888994E-2,9.295623749E-2,-2.408554405E-2
1.207464381E1,1.155058891E-1,1.046673954E-1,-4.625122622E-2
1.209449538E1,1.469218135E-1,1.144237816E-1,-5.881759524E-2
1.211434694E1,1.719498336E-1,1.217541695E-1,-6.445501000E-2
1.213420163E1,1.975712776E-1,1.287878454E-1,-6.471680850E-2
1.215405475E1,2.276607454E-1,1.372526884E-1,-6.140068173E-2
1.217390475E1,2.678556740E-1,1.485100687E-1,-5.319763720E-2
1.219375944E1,3.250152171E-1,1.613906026E-1,-3.762929887E-2
1.221361100E1,4.003436267E-1,1.775697917E-1,-1.137954649E-2
1.223346413E1,5.224817395E-1,2.020218670E-1,1.251401100E-2
1.225331725E1,7.105410099E-1,2.533869147E-1,-9.695304185E-2
1.227316881E1,5.890311599E-1,2.638414204E-1,-2.545562685E-1
1.229302194E1,4.885525703E-1,2.515019476E-1,-3.094119728E-1
1.231287350E1,4.219507873E-1,2.284461409E-1,-2.826735377E-1
1.233272663E1,3.824889064E-1,2.098583877E-1,-2.914001644E-1
1.235257975E1,3.412118554E-1,1.847256422E-1,-2.341882735E-1
1.237243756E1,2.831622064E-1,1.589645892E-1,-2.104168981E-1
1.239228444E1,2.502278686E-1,1.376017630E-1,-1.923527420E-1
1.241213756E1,1.966113448E-1,1.144237816E-1,-1.735729873E-1
1.243199069E1,1.349488646E-1,9.126326442E-2,-1.523497850E-1
1.245184225E1,7.571238279E-2,6.970845163E-2,-1.335176826E-1
1.247169694E1,3.434807807E-2,5.256931856E-2,-1.340761930E-1
1.249154850E1,2.125811018E-2,3.970624134E-2,-1.604830176E-1
1.251140631E1,3.672172874E-2,2.656391077E-2,-2.133490443E-1
1.253125319E1,5.886995420E-2,5.166174378E-3,-2.600715160E-1
1.255110631E1,6.934192777E-2,-2.368411794E-2,-2.662674189E-1
1.257095944E1,7.314674556E-2,-5.490805954E-2,-2.342755497E-1
1.259081100E1,8.325220644E-2,-8.035495877E-2,-1.873436421E-1
1.261066413E1,8.136724681E-2,-1.000771821E-1,-1.447576135E-1
1.263051725E1,6.305874884E-2,-1.170592308E-1,-1.138652787E-1
1.265036881E1,3.487167880E-2,-1.324355900E-1,-7.548549026E-2
1.267022194E1,-2.188642882E-2,-1.517040133E-1,-6.230825558E-3
1.269007506E1,-5.703736097E-2,-1.655968428E-1,3.251548484E-2
1.270992663E1,-7.778932154E-2,-1.744805574E-1,5.764822662E-2
1.272977975E1,-9.276425093E-2,-1.808510125E-1,7.754497975E-2
1.274963288E1,-1.015083492E-1,-1.868025959E-1,9.635962546E-2
1.276948600E1,-1.102349982E-1,-1.942551434E-1,1.116138026E-1
1.278933756E1,-1.302190125E-1,-2.030690610E-1,1.254018992E-1
1.280919069E1,-2.107310593E-1,-2.223200351E-1,1.429773718E-1
1.282904381E1,-4.360181391E-1,-2.677684128E-1,1.806764901E-1
1.284889538E1,-5.715080500E-1,-3.012612760E-1,2.091951668E-1
1.286874850E1,-6.442533731E-1,-3.283138871E-1,2.171713114E-1
1.288860163E1,-7.294428945E-1,-3.540051281E-1,2.382723540E-1
1.290845319E1,-7.196865082E-1,-3.560471535E-1,2.327745557E-1
1.292830631E1,-5.716477036E-1,-3.295356035E-1,1.141445339E-1
1.294815944E1,-4.770683050E-1,-3.038443625E-1,9.091419727E-2
1.296801256E1,-3.266732693E-1,-2.679080367E-1,-1.853539608E-2
1.298786413E1,-2.110103071E-1,-2.369284481E-1,-6.195918843E-2
1.300771725E1,-1.644623727E-1,-2.176425606E-1,-2.312561311E-2
1.302757038E1,-1.341460049E-1,-2.011317462E-1,-1.221730467E-2
1.304742194E1,-9.337511659E-2,-1.808335632E-1,1.029744279E-2
1.306727506E1,-5.302310362E-2,-1.604132056E-1,2.851868048E-2
1.308712819E1,-1.457349956E-2,-1.412145942E-1,5.262167752E-2
1.310697975E1,9.738937020E-3,-1.221555918E-1,7.752752304E-2
1.312683288E1,1.626646891E-2,-1.072330326E-1,8.918632567E-2
1.314668600E1,7.243116386E-3,-9.618509561E-2,9.334021062E-2
1.316653913E1,7.243116386E-3,-9.618509561E-2,9.334021062E-2
1.318639069E1,-5.061454722E-4,-8.560840040E-2,7.897614688E-2
1.320624381E1,-3.036872949E-3,-7.105235010E-2,5.157447979E-2
1.322609694E1,-4.782202188E-3,-5.375614017E-2,2.167698927E-2
1.324594850E1,-6.230825558E-3,-3.679154068E-2,-6.963863503E-3
1.326580163E1,8.028514683E-3,-1.867502369E-2,-6.630505621E-2
1.328565319E1,4.085815698E-2,-4.031710327E-3,-1.160643920E-1
1.330550631E1,8.011060953E-2,8.604473434E-3,-1.506219208E-1
1.332535944E1,1.137780100E-1,1.895427518E-2,-1.723861694E-1
1.334521256E1,1.364149302E-1,2.816961333E-2,-1.832246631E-1
1.336506413E1,1.550725102E-1,3.651228920E-2,-1.852667034E-1
1.338491725E1,1.827883273E-1,4.668755829E-2,-1.814967841E-1
1.340476881E1,2.275385708E-1,6.017895415E-2,-1.737300754E-1
1.342462194E1,3.100053668E-1,8.260643482E-2,-1.575334221E-1
1.344447506E1,4.424933195E-1,1.163611040E-1,-1.401848495E-1
1.346432819E1,7.068583369E-1,1.783377379E-1,-1.605353802E-1
1.348417975E1,7.970045805E-1,2.142566144E-1,-2.312735766E-1
1.350403288E1,6.618114114E-1,2.036101073E-1,-2.695660889E-1
1.352388600E1,5.693264008E-1,1.957561225E-1,-2.461786866E-1
1.354373756E1,4.869817793E-1,1.868200451E-1,-2.265088260E-1
1.356359069E1,4.079881608E-1,1.773429066E-1,-2.165779024E-1
1.358344381E1,3.294309080E-1,1.630486548E-1,-2.138202786E-1
1.360329694E1,2.840174139E-1,1.543045640E-1,-1.959655732E-1
1.362315475E1,2.106612474E-1,1.387536824E-1,-1.790882349E-1
1.364300163E1,1.313185692E-1,1.200611964E-1,-1.617571115E-1
1.366285319E1,8.562584966E-2,1.074948311E-1,-1.441292912E-1
1.368270631E1,6.712536514E-2,9.775589406E-2,-1.284038723E-1
1.370255944E1,7.049384713E-2,8.943066746E-2,-1.128355339E-1
1.372241256E1,7.660250366E-2,8.314748853E-2,-9.417796880E-2
1.374226413E1,7.895869762E-2,7.728318125E-2,-7.412413508E-2
1.376212350E1,7.520623505E-2,7.073819637E-2,-5.857324973E-2
1.378197038E1,7.525859773E-2,6.745697558E-2,-4.792674258E-2
1.380182194E1,7.824310660E-2,6.653194875E-2,-3.494149074E-2
1.382167506E1,6.703809649E-2,5.921902135E-2,-5.480333697E-3
1.384152819E1,4.525638744E-2,4.754276946E-2,3.954916075E-2
1.386137975E1,2.323033288E-2,3.654719517E-2,8.902924508E-2
1.388123288E1,4.921828397E-3,2.719222941E-2,1.327322870E-1
1.390108600E1,-4.797910154E-2,1.089085452E-2,1.725781560E-1
1.392093913E1,-9.030333161E-2,-1.640609466E-3,1.966287941E-1
1.394079069E1,-1.233075112E-1,-1.169370580E-2,2.095093280E-1
1.396064381E1,-1.563291401E-1,-2.122320421E-2,2.146056890E-1
1.398049694E1,-1.854935884E-1,-3.066543490E-2,2.126334608E-1
1.400034850E1,-2.157226950E-1,-4.052654654E-2,2.065771669E-1
1.402020163E1,-2.500358820E-1,-5.242969096E-2,1.974316388E-1
1.404005475E1,-2.936342061E-1,-6.682865322E-2,1.845511198E-1
1.405990788E1,-3.560122550E-1,-8.660323918E-2,1.655793786E-1
1.407975944E1,-4.445004463E-1,-1.143190637E-1,1.494525373E-1
1.409961256E1,-6.437996030E-1,-1.646718085E-1,1.689129621E-1
1.411946413E1,-8.252964020E-1,-2.132617831E-1,2.630560100E-1
1.413931725E1,-7.792546153E-1,-2.232625186E-1,3.369532526E-1
1.415917038E1,-6.846054196E-1,-2.232625186E-1,3.052057326E-1
1.417902350E1,-5.909684896E-1,-2.194227874E-1,2.735629082E-1
1.419887506E1,-4.644844830E-1,-2.058790326E-1,1.812698990E-1
1.421872819E1,-3.437600434E-1,-1.910088360E-1,1.353328228E-1
1.423858131E1,-3.003711700E-1,-1.880766749E-1,1.216494516E-1
1.425843288E1,-2.359161526E-1,-1.840275228E-1,1.097288504E-1
1.427828600E1,-1.621934474E-1,-1.780584902E-1,9.698794782E-2
1.429813913E1,-1.042659655E-1,-1.703964919E-1,8.862782270E-2
1.431799225E1,-7.728318125E-2,-1.631359309E-1,8.299040794E-2
1.433784381E1,-7.592181861E-2,-1.548106968E-1,7.553785294E-2
1.435769694E1,-8.230973035E-2,-1.447576135E-1,6.869615614E-2
1.437755006E1,-8.874998987E-2,-1.320865154E-1,6.747443229E-2
1.439740163E1,-8.826129884E-2,-1.192932576E-1,7.742280513E-2
1.441725475E1,-8.121016622E-2,-1.070061326E-1,9.630727023E-2
1.443710631E1,-8.251916617E-2,-9.574875981E-2,1.068839654E-1
1.445695944E1,-7.724827528E-2,-8.304276317E-2,9.820967913E-2
1.447681256E1,-6.110397726E-2,-6.881833076E-2,7.958701253E-2
1.449666569E1,-4.392993823E-2,-5.574581772E-2,5.991715193E-2
1.451651725E1,-3.352777660E-2,-4.612905160E-2,4.584980011E-2
1.453637038E1,-2.408554405E-2,-3.897320107E-2,3.825761750E-2
1.455622350E1,7.068583276E-3,-2.761110850E-2,1.075122785E-2
1.457607506E1,5.459389836E-2,-1.584758982E-2,-1.488765888E-2
1.459592819E1,1.097288504E-1,-4.729842301E-3,-3.033382259E-2
1.461577975E1,1.496794373E-1,3.577925032E-3,-3.515093029E-2
1.463563288E1,1.694714725E-1,9.896016680E-3,-4.155628756E-2
1.465548600E1,1.807288378E-1,1.637118869E-2,-5.187118426E-2
1.467533913E1,1.875356287E-1,2.230530791E-2,-6.326818466E-2
1.469519069E1,1.944645792E-1,2.715732343E-2,-7.374016196E-2
1.471504381E1,2.155307084E-1,3.497639671E-2,-8.463101834E-2
1.473489694E1,2.855707705E-1,5.305800959E-2,-1.047721133E-1
1.475474850E1,5.950874686E-1,1.133242249E-1,-1.736079007E-1
1.477460163E1,7.575775981E-1,1.601863205E-1,-2.457074523E-1
1.479445475E1,9.201550484E-1,2.083050460E-1,-2.894802988E-1
1.481430631E1,9.704379439E-1,2.405761778E-1,-2.714685202E-1
1.483415944E1,8.608487248E-1,2.525316775E-1,-2.311339527E-1
1.485401256E1,6.607118249E-1,2.375567704E-1,-8.206538111E-2
1.487386569E1,5.619087219E-1,2.595129907E-1,-4.733332992E-2
1.489371725E1,4.872610271E-1,2.713114321E-1,-1.251401100E-2
1.491357038E1,4.062951803E-1,2.710147202E-1,4.537856148E-4
1.493342350E1,3.031462431E-1,2.733709216E-1,-6.876597553E-2
1.495327506E1,2.235941291E-1,2.950130105E-1,-1.229235381E-1
1.497312819E1,1.551946700E-1,3.106686175E-1,-1.393645406E-1
1.499298131E1,8.965755999E-2,3.088534772E-1,-2.022662014E-1
1.501283913E1,4.881685972E-2,3.015405238E-1,-2.242050022E-1
1.503268600E1,2.759365551E-2,3.072302938E-1,-2.645919025E-1
1.505253913E1,2.251474746E-2,3.205646276E-1,-2.787989080E-1
1.507239225E1,1.692969352E-2,3.285582364E-1,-2.559874356E-1
1.509224381E1,6.841690745E-3,3.390825689E-1,-2.288999259E-1
1.511209694E1,-5.759586580E-3,3.617369533E-1,-2.073102146E-1
1.513195006E1,-2.246238664E-2,3.979001641E-1,-1.970825791E-1
1.515180788E1,-3.949680179E-2,4.294033647E-1,-1.868898571E-1
1.517165475E1,-5.892231688E-2,4.610287249E-1,-1.646718085E-1
1.519150788E1,-8.857546002E-2,5.101946592E-1,-1.395390779E-1
1.521135944E1,-1.452812105E-1,5.702340007E-1,-1.139176413E-1
1.523121256E1,-2.263168395E-1,6.105161905E-1,-9.112364054E-2
1.525106569E1,-3.048391938E-1,6.668903232E-1,-8.136724681E-2
1.527091881E1,-3.696956336E-1,7.648381591E-1,-7.810348272E-2
1.529077038E1,-4.050211012E-1,8.773595691E-1,-7.871434838E-2
1.531062350E1,-4.261570275E-1,1.010126710E0,-8.712683618E-2
1.533047663E1,-4.542917609E-1,1.206354141E0,-1.106538773E-1
1.535032819E1,-5.154830217E-1,1.506812572E0,-1.544441879E-1
1.537018131E1,-6.206740141E-1,1.846366405E0,-2.061931938E-1
1.539003444E1,-8.954062462E-1,2.066836357E0,-2.103296220E-1
1.540988600E1,-1.091686010E0,2.450285196E0,-1.783028394E-1
1.542973913E1,-1.268034101E0,3.076282501E0,-1.247037724E-1
1.544959225E1,-1.264089584E0,2.753047466E0,9.285151958E-3
1.546944538E1,-1.183769584E0,2.525788069E0,8.957029879E-2
1.548929694E1,-1.110378504E0,2.477808952E0,3.108431399E-2
1.550915006E1,-1.003023267E0,2.472800016E0,-9.948376566E-3
1.552900319E1,-9.105731845E-1,2.457824945E0,-4.150392860E-2
1.554885475E1,-7.731110454E-1,2.581080198E0,-1.432217211E-1
1.556870788E1,-6.558598280E-1,2.587869406E0,-1.699776202E-1
1.558856100E1,-5.882981420E-1,2.453095198E0,-1.586853415E-1
1.560841256E1,-5.090427399E-1,2.312438965E0,-1.494874507E-1
1.562826569E1,-4.372573495E-1,2.168955564E0,-1.417556405E-1
1.564811725E1,-3.708650172E-1,1.970651269E0,-1.252099127E-1
1.566797194E1,-3.201457560E-1,1.746690631E0,-8.765043318E-2
1.568782350E1,-2.879269719E-1,1.520932317E0,-5.668829381E-2
1.570767663E1,-2.599667907E-1,1.354131103E0,-4.825835302E-2
1.572752819E1,-2.272767723E-1,1.172128201E0,-4.886921868E-2
1.574738131E1,-1.841496825E-1,9.012182355E-1,-4.906120524E-2
1.576723444E1,-1.279151738E-1,5.432686210E-1,-4.323180392E-2
1.578708756E1,-6.154030934E-2,1.141794398E-1,-3.200933710E-2
1.580693913E1,-4.328416660E-3,-1.280024499E-1,-1.027998924E-1
1.582679225E1,4.152138159E-2,-2.781356573E-1,-1.623330712E-1
1.584664381E1,7.222172618E-2,-3.737971783E-1,-1.846907437E-1
1.586649694E1,9.093165398E-2,-4.189313650E-1,-2.026152760E-1
1.588635006E1,1.103397161E-1,-4.235390425E-1,-2.084097713E-1
1.590620319E1,1.252797395E-1,-3.840596974E-1,-2.055997849E-1
1.592605475E1,1.287878454E-1,-2.964267135E-1,-2.010444701E-1
1.594590788E1,1.329940856E-1,-1.924225539E-1,-1.945343912E-1
1.596576100E1,1.562069654E-1,-6.145304441E-2,-1.859473735E-1
1.598561256E1,3.387160599E-1,1.846383810E-1,-1.094321460E-1
1.600546569E1,5.636889935E-1,4.605749249E-1,-6.553710997E-2
1.602531725E1,6.314077377E-1,5.942147970E-1,-1.041787043E-1
1.604517038E1,6.361899376E-1,6.517757773E-1,-1.555437446E-1
1.606502350E1,6.489483118E-1,7.012732625E-1,-2.539803088E-1
1.608487663E1,6.067811847E-1,6.864728928E-1,-3.406882584E-1
1.610472819E1,5.507037640E-1,6.416354179E-1,-3.242821693E-1
1.612458131E1,5.255884528E-1,4.899488389E-1,-2.627069652E-1
1.614443444E1,5.279272199E-1,2.546260953E-1,-1.589296758E-1
1.616428600E1,5.244365335E-1,-4.412192479E-2,-5.811946467E-2
1.618413913E1,5.127253532E-1,-3.294832408E-1,2.733185515E-2
1.620399225E1,4.995656013E-1,-5.710542798E-1,9.131562710E-2
1.622384538E1,4.853585958E-1,-7.527430654E-1,1.328020990E-1
1.624369694E1,4.298920333E-1,-8.832064271E-1,1.679530293E-1
1.626355006E1,3.436727822E-1,-9.583951831E-1,1.913578957E-1
1.628340319E1,2.657787502E-1,-9.743998647E-1,1.937664598E-1
1.630325475E1,2.215171903E-1,-9.495987296E-1,1.848478168E-1
1.632310788E1,2.053205371E-1,-9.043946862E-1,1.774999797E-1
1.634296100E1,1.880417764E-1,-8.498356938E-1,1.684417278E-1
1.636281256E1,1.687035263E-1,-7.912973762E-1,1.634500772E-1
1.638266569E1,1.467996389E-1,-7.396531105E-1,1.651430577E-1
1.640251881E1,1.200262904E-1,-6.747093797E-1,1.653524935E-1
1.642237194E1,9.543460608E-2,-5.931326747E-1,1.773254573E-1
1.644222350E1,7.218682021E-2,-5.215567350E-1,2.061233819E-1
1.646207663E1,5.237733200E-2,-4.902106225E-1,2.379581928E-1
1.648193600E1,3.906046972E-2,-5.124461055E-1,2.643475533E-1
1.650178131E1,3.923500329E-2,-5.865527987E-1,2.750464380E-1
1.652163444E1,4.462806880E-2,-6.901206374E-1,2.809456587E-1
1.654148756E1,4.820599407E-2,-8.196240664E-1,2.930407822E-1
1.656134069E1,4.665265232E-2,-9.686228037E-1,3.047170341E-1
1.658119225E1,1.183333248E-2,-1.108388782E0,2.754653096E-1
1.660104538E1,-1.813396998E-2,-1.292241812E0,2.603507638E-1
1.662089850E1,-1.304284483E-1,-1.544284821E0,2.363001257E-1
1.664075006E1,-2.986432910E-1,-1.815002799E0,1.899965405E-1
1.666060319E1,-2.837905288E-1,-2.042506456E0,1.876927018E-1
1.668045631E1,-2.717826664E-1,-2.255087614E0,1.865931451E-1
1.670030788E1,-2.501056790E-1,-2.490706921E0,1.785646379E-1
1.672016100E1,-1.457349956E-1,-2.722137690E0,1.784424633E-1
1.674001413E1,-3.190461919E-2,-2.815146208E0,1.844289452E-1
1.675986569E1,3.801327199E-2,-2.781897783E0,1.754754037E-1
1.677971881E1,1.280897111E-1,-2.767935038E0,1.496968865E-1
1.679957194E1,1.980599612E-1,-2.765910625E0,1.610938907E-1
1.681942506E1,2.424785942E-1,-2.789524794E0,1.591565758E-1
1.683927663E1,2.997603118E-1,-2.812161684E0,1.614953130E-1
1.685912975E1,3.824190795E-1,-2.830121279E0,1.580570191E-1
1.687898288E1,4.831245840E-1,-2.816856623E0,1.437278688E-1
1.689883444E1,5.611757040E-1,-2.782787800E0,1.266061813E-1
1.691868756E1,6.042329669E-1,-2.705225468E0,1.144761443E-1
1.693854069E1,5.967804193E-1,-2.578479528E0,1.058367640E-1
1.695839381E1,5.655041337E-1,-2.428835154E0,9.473647177E-2
1.697824538E1,5.333377123E-1,-2.279818773E0,8.309512585E-2
1.699809850E1,5.066516399E-1,-2.146737576E0,5.815437064E-2
1.701795006E1,4.815712571E-1,-2.018961906E0,2.663372457E-2
1.703780319E1,4.533492625E-1,-1.890191555E0,5.602506921E-3
1.705765631E1,4.247956872E-1,-1.772434235E0,-1.460840553E-2
1.707750944E1,3.984412253E-1,-1.656753778E0,-2.508038096E-2
1.709736100E1,3.648436368E-1,-1.545331955E0,-2.467895485E-2
1.711721413E1,3.315950930E-1,-1.436458349E0,-2.302089334E-2
1.713706569E1,3.049788177E-1,-1.330900788E0,-2.131047100E-2
1.715691881E1,2.849424481E-1,-1.227490067E0,-2.284635976E-2
1.717677663E1,2.691123188E-1,-1.124637842E0,-2.960078418E-2
1.719662350E1,2.539454103E-1,-1.024124265E0,-3.841469809E-2
1.721647663E1,2.391275615E-1,-9.283755422E-1,-4.928809777E-2
1.723632975E1,2.245889604E-1,-8.413883448E-1,-6.606071442E-2
1.725618131E1,2.111150324E-1,-7.629532218E-1,-8.501498401E-2
1.727603444E1,2.027374506E-1,-6.882007718E-1,-9.066985548E-2
1.729588756E1,2.224945724E-1,-6.028890610E-1,-8.133234084E-2
1.731574069E1,4.829674959E-1,-4.253367484E-1,-5.825908855E-2
1.733559225E1,6.085439324E-1,-3.023433983E-1,-1.295034308E-2
1.735544538E1,5.865353346E-1,-2.437003255E-1,-7.627088577E-3
1.737529850E1,5.488886237E-1,-1.939584464E-1,-8.028514683E-3
1.739515006E1,4.576951265E-1,-1.601165086E-1,-7.103490178E-3
1.741500319E1,3.637440801E-1,-1.251575649E-1,-1.144936029E-2
1.743485631E1,3.030240536E-1,-8.824384958E-2,-3.197443113E-2
1.745470788E1,2.627942264E-1,-5.977752805E-2,-6.422811747E-2
1.747456100E1,2.270498872E-1,-3.321361542E-2,-7.895869762E-2
1.749441413E1,1.650906950E-1,1.396263391E-2,-6.913249195E-2
1.751426569E1,5.686282739E-2,7.265805453E-2,-5.867796764E-2
1.753411881E1,-5.183627829E-2,1.495049000E-1,-5.873033032E-2
1.755397350E1,-1.355422735E-1,2.305754423E-1,-6.703809649E-2
1.757382506E1,-1.794198453E-1,3.027622700E-1,-8.197811246E-2
1.759367819E1,-2.045525908E-1,3.525564969E-1,-8.477064222E-2
1.761352975E1,-2.110103071E-1,3.766420484E-1,-4.707153141E-2
1.763338288E1,-1.937140971E-1,4.323878586E-1,3.323106840E-2
1.765323444E1,-1.533795297E-1,4.628264010E-1,1.243197992E-1
1.767308756E1,-9.779080003E-2,4.786216319E-1,2.083050460E-1
1.769294069E1,-5.496041849E-2,4.781852961E-1,2.933025658E-1
1.771279381E1,-2.408554405E-2,4.276580215E-1,3.722089231E-1
1.773264538E1,-2.408554405E-2,4.276580215E-1,3.722089231E-1
1.775249850E1,-2.408554405E-2,4.276580215E-1,3.722089231E-1
1.777235163E1,-2.408554405E-2,4.276580215E-1,3.722089231E-1
1.779220319E1,-2.408554405E-2,4.276580215E-1,3.722089231E-1
1.781205631E1,-2.408554405E-2,4.276580215E-1,3.722089231E-1
1.783190944E1,-2.408554405E-2,4.276580215E-1,3.722089231E-1
1.785176100E1,5.000368133E-2,9.925687313E-2,4.586027265E-1
1.787162038E1,9.515535086E-2,-3.021164984E-2,5.204222798E-1
1.789146725E1,1.240754575E-1,-3.989822790E-2,5.794667602E-1
1.791131881E1,1.240754575E-1,-3.989822790E-2,5.794667602E-1
1.793117194E1,1.391027421E-1,-3.551745042E-2,6.330134869E-1
1.795102506E1,1.451241225E-1,-1.021192148E-1,6.817954183E-1
1.797087819E1,1.279850006E-1,-2.046049535E-1,7.397577763E-1
1.799072975E1,5.499532446E-2,-2.396511585E-1,9.278170466E-1
1.801058288E1,-1.740093343E-2,-3.325375915E-1,1.008311629E0
1.803043600E1,-6.147049740E-2,-5.888566375E-1,9.862681031E-1
1.805028756E1,-6.586872786E-2,-1.319172263E0,1.017160416E0
1.807014694E1,-2.942101657E-1,-1.621917009E0,9.980840087E-1
1.808999381E1,-5.678603053E-1,-1.724472523E0,9.835279584E-1
1.810984538E1,-7.785564661E-1,-1.777041912E0,1.007124782E0
1.812969850E1,-9.326515794E-1,-1.823746920E0,1.043514848E0
1.814955163E1,-9.647830725E-1,-1.801651001E0,1.045714021E0
1.816940475E1,-8.603774905E-1,-1.738557339E0,9.624966979E-1
1.818925631E1,-7.428994179E-1,-1.664433241E0,9.119519591E-1
1.820910944E1,-6.172007918E-1,-1.565769792E0,9.563705921E-1
1.822896256E1,-5.084842443E-1,-1.455238104E0,1.117673993E0
1.824881569E1,-4.507836401E-1,-1.417975307E0,1.067391038E0
1.826866725E1,-4.193502665E-1,-1.382981420E0,9.878912568E-1
1.828852038E1,-3.508111835E-1,-1.305244446E0,9.397725463E-1
1.830837350E1,-2.722015381E-1,-1.202619076E0,9.259320498E-1
1.832822506E1,-2.058092207E-1,-1.088579297E0,9.496685266E-1
1.834807819E1,-8.361872286E-2,-9.343969226E-1,1.033671260E0
1.836793131E1,1.569050923E-2,-7.922747731E-1,1.088841081E0
1.838778444E1,5.359905958E-2,-6.776764393E-1,1.073115706E0
1.840763600E1,1.409702450E-1,-3.291690946E-1,1.064336658E0
1.842748913E1,2.486395985E-1,1.420348883E-1,1.079852700E0
1.844734069E1,2.957809567E-1,4.182856083E-1,1.089085460E0
1.846719381E1,3.819827735E-1,6.352649331E-1,1.051386356E0
1.848704538E1,4.895648658E-1,8.684932590E-1,1.007194638E0
1.850690006E1,5.823814869E-1,1.033915639E0,9.712058902E-1
1.852675163E1,6.372720599E-1,1.072051048E0,9.388126135E-1
1.854660475E1,6.900683045E-1,1.062329531E0,8.959124088E-1
1.856646256E1,7.809301019E-1,1.028522491E0,8.456469178E-1
1.858630944E1,9.347459674E-1,1.038069487E0,8.170933127E-1
1.860616256E1,1.065820217E0,1.046569228E0,7.598989010E-1
1.862601413E1,1.148234606E0,1.031873584E0,6.693162918E-1
1.864586725E1,1.236862421E0,1.010510683E0,5.852088928E-1
1.866572038E1,1.372439623E0,1.025607824E0,5.215741992E-1
1.868557350E1,1.611549735E0,1.231678843E0,4.236437678E-1
1.870542663E1,1.816503763E0,1.331738591E0,3.283313513E-1
1.872527819E1,1.997965693E0,1.189249873E0,2.284112424E-1
1.874513131E1,2.132041931E0,1.001085997E0,1.039343551E-1
1.876498444E1,2.239554167E0,8.121889830E-1,-2.234021388E-2
1.878483756E1,2.323242664E0,6.185621619E-1,-8.346164227E-2
1.880468913E1,2.409950733E0,4.315675497E-1,-9.745918214E-2
1.882454225E1,2.405343056E0,3.390825689E-1,-7.426375896E-2
1.884439381E1,2.323120594E0,2.882760167E-1,-8.258897811E-2
1.886424694E1,2.257897615E0,2.185152173E-1,-8.772024512E-2
1.888410006E1,2.277864218E0,9.262461960E-2,-7.180284709E-2
1.890395163E1,2.298389196E0,-3.925245628E-2,-5.534439161E-2
1.892380475E1,2.235906363E0,-1.257684231E-1,-7.375761122E-2
1.894365631E1,2.137626886E0,-1.907121241E-1,-1.075995490E-1
1.896350944E1,2.063642502E0,-2.709798217E-1,-1.477421224E-1
1.898336256E1,1.985765815E0,-3.495894372E-1,-1.880941391E-1
1.900321569E1,1.931782722E0,-4.609588981E-1,-2.431941777E-1
1.902306725E1,1.939758897E0,-6.553711295E-1,-3.398854136E-1
1.904292038E1,1.908342957E0,-7.901803851E-1,-4.141317308E-1
1.906277350E1,1.886892915E0,-9.049881101E-1,-4.663170576E-1
1.908262506E1,1.854220390E0,-9.730734229E-1,-4.821821153E-1
1.910247819E1,1.819976926E0,-1.023740292E0,-4.842765033E-1
1.912233131E1,1.799626470E0,-1.080184221E0,-4.736823440E-1
1.914218288E1,1.780846715E0,-1.145110488E0,-4.666312337E-1
1.916203600E1,1.771544099E0,-1.225325823E0,-4.679751396E-1
1.918188913E1,1.785995364E0,-1.304633617E0,-4.452858567E-1
1.920174225E1,1.810691833E0,-1.367622495E0,-3.999247551E-1
1.922159538E1,1.852597237E0,-1.427138329E0,-3.534466326E-1
1.924144694E1,1.894327998E0,-1.462655663E0,-3.009645641E-1
1.926130475E1,1.939025879E0,-1.494385839E0,-2.541548312E-1
1.928115163E1,1.965415239E0,-1.507301211E0,-2.106437832E-1
1.930100475E1,1.943947673E0,-1.467891693E0,-1.528384835E-1
1.932086413E1,1.897731423E0,-1.405269265E0,-8.459610492E-2
1.934071100E1,1.865530014E0,-1.347132325E0,1.040216256E-2
1.936056256E1,1.826713920E0,-1.279623032E0,1.202531829E-1
1.938041569E1,1.792697430E0,-1.181343555E0,2.726204395E-1
1.940026881E1,1.764335871E0,-1.060654044E0,4.526686072E-1
1.942012038E1,1.747318864E0,-9.720436931E-1,6.186668873E-1
1.943997350E1,1.733234167E0,-9.507157207E-1,7.247304916E-1
1.945982663E1,1.717543602E0,-9.383588433E-1,8.244586587E-1
1.947967819E1,1.676318884E0,-8.634842038E-1,9.309760928E-1
