"Time (s)","Gyroscope x (rad/s)","Gyroscope y (rad/s)","Gyroscope z (rad/s)"
1.524863050E-1,-2.881671906E0,-2.246696234E0,-3.440139055E0
1.722559410E-1,-2.212183237E0,-2.354205370E0,-3.484120131E0
1.920271390E-1,-1.119988441E0,-2.635195017E0,-3.230618477E0
2.117967740E-1,-7.705838084E-1,-2.672456741E0,-3.112114191E0
2.315680240E-1,-1.132205367E0,-2.503252029E0,-2.943520308E0
2.513376070E-1,-1.628824234E0,-2.076880693E0,-2.570903301E0
2.711088570E-1,-1.393648028E0,-1.499019146E0,-2.176906824E0
2.908784410E-1,-6.673506498E-1,-1.453205585E0,-1.743205309E0
3.106496910E-1,8.215895295E-2,-2.176448822E0,-1.619814277E0
3.304193260E-1,4.726430774E-1,-2.929776192E0,-1.906912446E0
3.501905240E-1,-4.306473210E-2,-2.673678398E0,-2.076117039E0
3.699601590E-1,-9.874345660E-1,-1.320040941E0,-2.016254187E0
3.897313570E-1,-1.090056896E0,-3.707842827E-1,-1.961888671E0
4.095009930E-1,-2.843494117E-1,-7.959339619E-1,-2.046796560E0
4.292722430E-1,5.697677732E-1,-2.064663649E0,-2.217833757E0
4.490418260E-1,7.175928354E-1,-2.676121950E0,-2.375432253E0
4.688130760E-1,3.210002482E-1,-2.258302212E0,-2.612441063E0
4.885827110E-1,-4.367557913E-2,-1.395175099E0,-2.649702787E0
5.083539090E-1,-2.745758295E-1,-9.150491953E-1,-2.473167896E0
5.281235450E-1,-5.030327439E-1,-1.280946732E0,-2.277696609E0
5.478947430E-1,-3.655920923E-1,-2.113531590E0,-2.341224909E0
5.676643780E-1,4.622586668E-1,-2.233257532E0,-2.205005884E0
5.874355760E-1,6.503996253E-1,-1.552773714E0,-1.719993114E0
6.072052110E-1,-9.468132630E-3,-9.932376146E-1,-1.506196618E0
6.269764610E-1,-6.203153729E-1,-9.602518678E-1,-1.653410792E0
6.467460450E-1,-8.102889061E-1,-1.199093223E0,-1.768860936E0
6.665172950E-1,-7.504258752E-1,-1.253458619E0,-1.638750434E0
6.862868780E-1,-5.250232220E-1,-1.131289124E0,-1.285069942E0
7.060581280E-1,-1.542389393E-1,-9.926267862E-1,-1.136023164E0
7.258277640E-1,-4.611896724E-2,-8.484668136E-1,-1.121362805E0
7.455989610E-1,-2.110477239E-1,-5.686988235E-1,-1.065775752E0
7.653685970E-1,-4.627167881E-1,-3.206948042E-1,-1.027292371E0
7.851397950E-1,-6.166502833E-1,-3.506263196E-1,-1.071884274E0
8.049094300E-1,-6.129852533E-1,-4.917320311E-1,-1.157402873E0
8.246806280E-1,-6.288672686E-1,-5.412106514E-1,-1.092042208E0
8.444502640E-1,-6.459710002E-1,-4.789042473E-1,-9.350544214E-1
8.642215140E-1,-5.891621709E-1,-5.241069198E-1,-8.391514421E-1
8.839910970E-1,-3.429907262E-1,-5.827482939E-1,-6.968240142E-1
9.037623470E-1,-1.169772521E-1,-5.992411375E-1,-4.731011987E-1
9.235319300E-1,-8.765657991E-2,-4.184303582E-1,-3.155026138E-1
9.433031800E-1,-1.017060652E-1,-3.005368412E-1,-2.800734639E-1
9.630727640E-1,6.261184067E-2,-3.005368412E-1,-2.867927849E-1
9.828440140E-1,2.189887464E-1,-3.982724249E-1,-2.031067163E-1
1.002613597E0,2.764083743E-1,-5.851916671E-1,-9.132166207E-2
1.022384847E0,2.391466945E-1,-7.818844914E-1,2.748812549E-3
1.042154430E0,9.132166207E-2,-7.495095730E-1,-2.168507688E-2
1.061925680E0,-1.982199401E-1,-3.915531039E-1,-4.062134400E-2
1.081695264E0,-5.097520351E-1,-2.113531530E-1,8.857285604E-3
1.101466514E0,-7.223268747E-1,-5.179984570E-1,-2.107422985E-2
1.121236097E0,-5.500679612E-1,-9.278770089E-1,-1.068982668E-2
1.141007347E0,-1.713426560E-1,-1.224137902E0,1.322484314E-1
1.160776930E0,-1.811162084E-1,-1.062874198E0,1.548497826E-1
1.180548180E0,-5.702258945E-1,-2.956500649E-1,1.872246861E-1
1.200317764E0,-7.803573608E-1,4.685198367E-1,3.436015844E-1
1.220089014E0,-6.026008129E-1,8.167027831E-1,5.573981404E-1
1.239858597E0,-4.395045936E-1,5.357130170E-1,4.865398407E-1
1.259629847E0,-6.985038519E-1,4.648547769E-1,3.411581814E-1
1.279399430E0,-1.224443316E0,5.815265775E-1,4.059080184E-1
1.299170680E0,-1.561630964E0,9.242119193E-1,2.800734639E-1
1.318940264E0,-1.716175318E0,1.325538516E0,7.055285573E-2
1.338711514E0,-1.853005171E0,1.353637576E0,-1.096470803E-1
1.358481097E0,-1.901262045E0,7.214106321E-1,-3.075616062E-1
1.378252347E0,-1.631878495E0,-5.412106514E-1,-3.753656447E-1
1.398021930E0,-9.623898268E-1,-1.660893679E0,-1.982199401E-1
1.417793180E0,-4.718795121E-1,-9.773555994E-1,5.772506446E-2
1.437562764E0,-5.622848868E-1,5.192201734E-1,2.843494117E-1
1.457333961E0,-1.207339644E0,1.629129648E0,2.971771955E-1
1.477103597E0,-1.969676971E0,2.016406775E0,-1.252236869E-2
1.496874795E0,-2.469350100E0,1.569877505E0,-3.112266660E-1
1.516644430E0,-2.567696571E0,9.132166505E-1,-3.087832928E-1
1.536415628E0,-2.034426689E0,7.757759839E-2,7.971556485E-2
1.556185264E0,-1.035691500E0,-7.934905887E-1,6.258130074E-1
1.575956461E0,-4.987567961E-1,-7.672241330E-1,9.654440880E-1
1.595726045E0,-7.821899056E-1,-5.558710173E-2,7.650861740E-1
1.615497295E0,-1.375933409E0,9.553651214E-1,-7.299624383E-2
1.635266878E0,-1.992278337E0,1.805664539E0,-8.941276670E-1
1.655038128E0,-2.153542042E0,2.233868361E0,-1.132358074E0
1.674807711E0,-1.541473031E0,1.860029936E0,-8.525900841E-1
1.694578909E0,-5.335750580E-1,1.003622055E0,-4.535540938E-1
1.714348545E0,-1.334701329E-1,1.722589284E-1,-5.250232220E-1
1.734119743E0,1.149461865E0,1.175270081E0,-1.318055630E0
1.753889378E0,1.458550572E0,8.496885300E-1,-2.090777397E0
1.773660576E0,4.573718905E-1,4.355340898E-1,-1.015075445E0
1.793430159E0,-5.005893111E-1,1.487413049E0,-5.373928547E-1
1.813201409E0,-1.691130638E0,1.265675545E0,-8.672503829E-1
1.832970993E0,-1.840177417E0,1.359135151E0,-4.602734149E-1
1.852742191E0,-1.945243120E0,1.521009684E0,-4.978405312E-2
1.872511826E0,-1.559187651E0,2.517301559E0,6.954495907E-1
1.892283024E0,-1.110214949E0,2.869913101E0,2.113837004E0
1.912052659E0,-2.748812549E-3,2.220429897E0,3.477858782E0
1.931823857E0,1.505585790E0,3.250470877E0,3.727084637E0
1.951593441E0,2.852504015E0,3.383635759E0,3.509011984E0
1.971364691E0,2.897706747E0,2.360313892E0,1.969066143E0
1.991134274E0,3.093788624E0,3.114862919E0,1.171910524E0
2.010905472E0,2.040688038E0,1.252847672E0,1.243074164E-1
2.030675107E0,5.453338623E-1,3.837495089E0,-9.167290330E-1
2.050446305E0,5.850389600E-1,3.989596128E0,-8.215895295E-2
2.070215941E0,1.630198598E0,4.935645759E-1,9.397885203E-1
2.089987139E0,1.515970230E0,-3.988832533E-1,9.978190064E-1
2.109756722E0,4.078932703E-1,4.312581718E-1,2.079934925E-1
2.129527972E0,-1.160915256E0,1.070815206E0,-1.315612316E0
2.149297555E0,-3.032551289E0,1.878355265E0,-2.658254623E0
2.169068753E0,-3.501681805E0,2.123305082E0,-3.249554634E0
2.188838389E0,-2.545095205E0,1.458703279E0,-3.083404303E0
2.208609586E0,-2.155374527E0,9.559759498E-1,-2.462172508E0
2.228379222E0,-2.682535648E0,8.252546191E-1,-2.011978149E0
2.248150420E0,-2.816922188E0,7.837170362E-1,-1.985100865E0
2.267920003E0,-2.072299242E0,5.900784731E-1,-2.500655890E0
2.287691253E0,-9.880454540E-1,9.883508682E-1,-2.517759800E0
2.307460836E0,-1.542389393E-1,1.984031916E0,-2.139645338E0
2.327232034E0,1.340809762E-1,2.995136738E0,-1.962499499E0
2.347001670E0,5.039490014E-2,3.369586229E0,-2.023584366E0
2.366772868E0,-3.023693897E-2,2.820434570E0,-2.038244486E0
2.386542451E0,-2.037175596E-1,1.364021897E0,-1.953947663E0
2.406313701E0,-6.697940230E-1,-1.638903141E0,-1.343100429E0
2.426083284E0,-1.434574842E0,-4.186899662E0,-4.059080184E-1
2.445854534E0,-2.294036865E0,-3.095926523E0,-4.731011987E-1
2.465624118E0,-2.835247517E0,-5.717530251E-1,-1.827502251E0
2.485395316E0,-2.427201509E0,3.463504016E-1,-2.022362471E0
2.505164951E0,-1.789476991E0,-4.263713956E-1,-4.291202128E-1
2.524936149E0,-1.308740258E0,-1.174048424E0,9.660549164E-1
2.544705732E0,-8.750386834E-1,-2.675510943E-1,1.210393786E0
2.564476982E0,-1.249182671E-1,1.771457121E-2,5.738909841E-1
2.584246566E0,5.386145711E-1,-3.848337755E-2,3.814741075E-1
2.604017764E0,3.662029207E-1,-1.195428133E0,5.659499764E-1
2.623787399E0,-5.421269536E-1,-2.228370905E0,4.553866386E-1
2.643558597E0,-1.648982167E0,-1.278503299E0,-3.454341292E-1
2.663328232E0,-1.058292866E0,1.350583315E0,-1.587439299E0
2.683099430E0,1.008966923E0,3.220539570E0,-1.125027895E0
2.702869014E0,1.420067191E0,1.205201626E0,-2.107422985E-2
2.722640264E0,5.538857579E-1,-1.408002973E0,1.107771516E0
2.742409847E0,4.573718905E-1,-8.576295376E-1,1.355775476E0
2.762181045E0,-4.028537571E-1,-3.335226178E-1,1.074785709E0
2.781950680E0,-1.450456858E0,-6.902574003E-2,7.296570539E-1
2.801721878E0,-2.122999668E0,1.820935726E0,4.749337435E-1
2.821491514E0,-3.563377380E0,-4.141544402E-1,2.060693264E0
2.841262711E0,-4.459490299E0,-3.344541550E0,2.979407549E0
2.861032295E0,-3.842534781E0,-3.963329792E0,1.206728816E0
2.880803493E0,-2.425979853E0,-3.221150398E0,-2.702999115E-1
2.900573128E0,-6.642963886E-1,-1.529561520E0,-5.833591148E-2
2.920344326E0,-5.635066032E-1,-4.440859556E-1,6.392516494E-1
2.940113909E0,-1.105938911E0,-3.891097009E-1,1.071731567E0
2.959885159E0,-7.449282408E-1,-6.303943992E-1,8.420529366E-1
2.979654743E0,-6.514685750E-1,-1.214975238E0,4.932591617E-1
2.999425941E0,-1.073564053E0,-1.140451789E0,6.148177385E-1
3.019195576E0,-1.782757759E0,-1.321873426E0,4.413371384E-1
3.038966774E0,-1.634321809E0,-2.107423067E0,-3.533751369E-1
3.058736409E0,-1.725948930E0,-2.646190405E0,-8.959602118E-1
3.078507607E0,-1.577513099E0,-2.024347782E0,-1.896528006E0
3.098277191E0,-7.302678823E-1,-1.415943980E0,-2.765763760E0
3.118048389E0,-2.806843221E-1,-5.283828974E-1,-2.311293364E0
3.137818024E0,-5.763344169E-1,1.948602796E-1,-1.443890214E0
3.157589222E0,-3.894151151E-1,4.007157981E-1,-1.084712029E0
3.177358805E0,-1.798945218E-1,2.486148328E-1,-1.552621007E0
3.197130055E0,-9.526162744E-1,3.805578351E-1,-1.834221601E0
3.216899639E0,-1.838344812E0,1.263842940E0,-1.956391096E0
3.236670836E0,-2.746674776E0,4.489269257E0,-3.632555962E0
3.256440472E0,-5.470137000E-1,1.445264578E0,-2.948406935E0
3.276211670E0,2.092151791E-1,8.741224408E-1,-8.202151656E-1
3.295981253E0,-2.733541429E-1,-2.409792423E0,-2.238755226E-1
3.315752451E0,2.531961799E-1,-5.065298080E0,-2.501419485E-1
3.335522086E0,1.884311080E0,-5.828246593E0,-7.554653287E-1
3.355293284E0,2.320456028E0,-4.455672741E0,-8.739697337E-1
3.375062868E0,3.662029207E-1,1.349972486E-1,3.845283389E-1
3.394834066E0,-1.585454106E0,-4.410317242E-1,-2.412846684E-2
3.414603701E0,-2.154152870E0,7.146912813E-2,-1.024848938E0
3.434374899E0,-2.232646793E-1,-1.435491085E0,-4.688252807E-1
3.454144482E0,-1.076618314E0,1.750688195E0,2.690782249E-1
3.473915680E0,-2.190192938E0,-3.121429384E-1,-1.037676811E0
3.493685316E0,-4.236225784E-1,-2.827153921E0,-2.868996859E0
3.513456514E0,-1.261399537E-1,7.134696245E-1,-3.737010717E0
3.533226097E0,-1.287971497E0,4.736051559E0,-2.884268045E0
3.552997347E0,-2.542651653E0,2.951766729E0,-2.299840003E-1
3.572766930E0,-2.257996798E0,8.551861644E-1,1.695406556E0
3.592538128E0,-1.253764033E0,6.536065936E-1,4.584408700E-1
3.612307711E0,-6.624638438E-1,1.710372269E-1,-1.533684731E0
3.632078961E0,-9.245173335E-1,-1.630962193E-1,-2.759044409E0
3.651848545E0,-2.019155502E0,2.003578991E-1,-2.645426750E0
3.671619743E0,-1.871330619E0,-2.614426315E-1,-1.412737012E0
3.691389378E0,-1.236049414E0,-2.473931462E-1,-5.752654076E-1
3.711160576E0,-1.774816751E0,9.504783154E-1,-5.453338623E-1
3.730930159E0,-1.744274378E0,3.377985358E-1,-1.057834744E0
3.750701357E0,-1.520704269E0,9.284878373E-1,-2.510429621E0
3.770470993E0,-2.179808378E0,-1.435490996E-1,-2.561740637E0
3.790242191E0,-1.818186879E0,-6.560499668E-1,-1.574611545E0
3.810011774E0,-7.211052179E-1,4.489727318E-1,-9.222266674E-1
3.829782972E0,-1.524063945E-1,1.144116879E0,-3.210002482E-1
3.849552607E0,3.594835997E-1,1.340198874E0,9.254335612E-2
3.869323805E0,6.473453641E-1,1.588202834E0,-3.756710514E-2
3.889093389E0,1.729155898E0,1.104411840E0,5.528167635E-2
3.908864639E0,2.765763760E0,4.367557764E-1,4.957025647E-1
3.928634222E0,3.284373045E0,-5.436540768E-2,9.623898268E-1
3.948405420E0,3.591629267E0,-1.380514801E-1,1.068677306E0
3.968175055E0,3.908658981E0,8.050966859E-1,9.031376839E-1
3.987946253E0,3.455410242E0,1.963263035E0,4.840964675E-1
4.007715836E0,2.544636965E0,1.995027184E0,2.104368806E-1
4.027487086E0,2.405363798E0,9.834640622E-1,7.113316059E-1
4.047256670E0,2.721782684E0,-7.647807598E-1,6.142069101E-1
4.067027868E0,3.371113300E0,-2.082989216E0,3.185568452E-1
4.086797503E0,3.603235245E0,-1.915006161E0,1.524063945E-1
4.106568701E0,3.026595354E0,-1.717091680E0,-2.269297540E-1
4.126338284E0,2.624047041E0,-1.484969735E0,-9.576557875E-1
4.146109534E0,2.307017326E0,-1.636459827E0,-1.710219622E0
4.165879118E0,1.854990363E0,-1.535059214E0,-1.925237894E0
4.185650316E0,1.255749226E0,-8.014315963E-1,-1.573389769E0
4.205419951E0,7.212579250E-1,-7.207997888E-2,-1.114032745E0
4.225191149E0,3.723114133E-1,1.496575773E-1,-7.438592315E-1
4.244960732E0,2.550287247E-1,3.390202224E-1,-1.652341783E-1
4.264731982E0,2.318165302E-1,4.355340898E-1,4.114056230E-1
4.284501566E0,5.344913527E-2,5.723638535E-1,7.394306064E-1
4.304272764E0,-1.200314835E-1,-1.881409585E-1,6.429167390E-1
4.324042399E0,-6.383354217E-2,-1.222916245E0,5.066977739E-1
4.343813597E0,-2.107422985E-2,-1.423274159E0,6.526902914E-1
4.363583232E0,-3.332171738E-1,-5.705313683E-1,7.748597264E-1
4.383354430E0,-3.234436214E-1,-3.439069986E-1,2.544178963E-1
4.403124066E0,-3.145863488E-2,-6.981984377E-1,-2.971771955E-1
4.422895264E0,-1.592173338E0,-3.646758199E-1,-5.091412067E-1
4.442664847E0,-1.783979416E0,8.179244995E-1,-7.304205894E-1
4.462436045E0,1.665627718E0,2.100092888E0,-1.489703774E0
4.482205680E0,-1.496270418E0,2.910228968E0,-8.643488586E-2
4.501976878E0,-3.381039500E-1,-1.632794738E0,-5.192201585E-3
4.521746514E0,-1.071120620E0,3.726168275E-1,3.350497186E-1
4.541517711E0,-3.830928564E0,3.164952278E0,1.005149126E0
4.561287347E0,-2.800429344E0,2.029234648E0,7.272136807E-1
4.581058545E0,-2.609844923E0,-6.542174220E-1,4.706578255E-1
4.600828180E0,-2.672151327E0,3.494046330E-1,1.463284612E0
4.620599378E0,-2.976964235E0,1.231468081E0,1.350888729E0
4.640368961E0,-3.287274599E0,2.155679941E0,2.861819267E-1
4.660140211E0,-3.064315319E0,2.426285267E0,-4.266768098E-1
4.679909795E0,-2.558533669E0,2.138576269E0,-5.758762360E-1
4.699681045E0,-2.182251930E0,1.577207565E0,-3.924693763E-1
4.719450628E0,-2.220124245E0,1.147171140E0,-1.933331639E-1
4.739221878E0,-2.041756868E0,1.081199646E0,-2.324273884E-1
4.758991461E0,-1.733889937E0,1.152057886E0,-2.037175596E-1
4.778762711E0,-1.831625462E0,1.753131628E0,-1.743968874E-1
4.798532295E0,-1.953794956E0,1.497797489E0,-2.226538211E-1
4.818303493E0,-1.631878495E0,3.237490356E-2,-3.759764731E-1
4.838073128E0,-1.159693480E0,-5.076140761E-1,-6.223006248E-1
4.857844326E0,-8.921424150E-1,4.257605374E-1,-6.449019909E-1
4.877613961E0,-8.194515705E-1,1.205201626E0,-6.009209752E-1
4.897385159E0,-3.497100472E-1,4.911212027E-1,-7.279772162E-1
4.917154795E0,-1.072036922E-1,2.846548259E-1,-8.477032781E-1
4.936925993E0,1.829487532E-1,2.095206082E-1,-8.385405540E-1
4.956695628E0,7.310314775E-1,4.648547769E-1,-8.641961813E-1
4.976466826E0,1.607597232E0,4.654656053E-1,-9.820896983E-1
4.996236409E0,2.862277508E0,2.070772201E-1,-6.546755433E-1
5.016007659E0,4.178042412E0,-5.943543911E-1,8.276980370E-2
5.035777243E0,4.851807117E0,-2.142852068E0,3.839175105E-1
5.055548493E0,4.440706730E0,-2.895568609E0,2.886253297E-1
5.075318076E0,4.399169445E0,-2.557006598E0,3.845283389E-1
5.095089326E0,4.164603710E0,-2.076269865E0,3.515425920E-1
5.114858909E0,3.419981003E0,-1.136175871E0,2.141019702E-1
5.134630159E0,3.016821861E0,-1.257734537E0,8.951966763E-1
5.154399743E0,3.067522287E0,-2.387191057E0,1.888434291E0
5.174170941E0,3.320412874E0,-3.332324505E0,2.300145388E0
5.193940576E0,3.310639381E0,-4.044572353E0,2.267159700E0
5.213711774E0,2.858001709E0,-4.076947212E0,1.932415247E0
5.233481409E0,2.115822077E0,-3.244973421E0,1.068066478E0
5.253252607E0,1.954558492E0,-2.835094929E0,7.162184119E-1
5.273022243E0,1.879424334E0,-2.263799906E0,5.317425132E-1
5.292793441E0,1.441446781E0,-1.177713513E0,3.820849657E-1
5.312563024E0,7.768449783E-1,-3.054236174E-1,3.106158376E-1
5.332334274E0,2.290677279E-2,2.944283783E-1,2.018850148E-1
5.352103857E0,-7.357655168E-1,5.418215394E-1,1.496575773E-2
5.371875055E0,-1.115101695E0,2.082989216E-1,-2.122694254E-1
5.391644691E0,-1.189014196E0,-6.181774139E-1,-1.230857223E-1
5.411415889E0,-1.097997904E0,-9.559759498E-1,3.087832928E-1
5.431185524E0,-3.826957941E-1,-7.024743557E-1,8.958075047E-1
5.450956722E0,2.959555089E-1,-2.052446753E-1,9.978190064E-1
5.470726357E0,8.399149776E-2,-5.717530251E-1,1.273311138E0
5.490497555E0,-7.357655168E-1,2.559449971E-1,1.649592996E0
5.510267139E0,-1.464506269E0,3.427616596E0,-9.875873327E-1
5.530038389E0,3.148764849E0,-2.205158710E0,-5.866424561E0
5.549807972E0,-7.003363967E-1,-3.084778786E-1,-1.335770249E0
5.569579222E0,-1.049741030E0,-7.568397522E-1,-1.743816257E0
5.589348805E0,-2.648328304E0,4.771480560E0,2.159345001E-1
5.609120003E0,-4.516910076E0,3.634693861E0,3.454341292E-1
5.628889639E0,-2.229287148E0,7.910472155E-1,-3.411581814E-1
5.648660836E0,-2.323968410E0,-3.384093940E-1,-3.246653080E-1
5.668430472E0,-2.807759523E0,3.109212518E-1,8.273926377E-1
5.688201670E0,-3.178543806E0,1.902789235E0,1.031415582E0
5.707971253E0,-3.254288673E0,2.587701797E0,3.717005551E-1
5.727742503E0,-3.227411509E0,2.112309933E0,-2.305948436E-1
5.747512086E0,-2.670318842E0,1.091584086E0,-5.343386531E-1
5.767283336E0,-2.084516287E0,2.687728032E-2,-4.333961308E-1
5.787052920E0,-2.068634272E0,-9.712471068E-2,-2.226538211E-1
5.806824118E0,-2.120556355E0,4.379774928E-1,-4.236225784E-1
5.826593753E0,-1.862778664E0,3.823903799E-1,-6.412369013E-1
5.846364951E0,-1.586064935E0,2.626643144E-2,-6.363501549E-1
5.866134534E0,-1.547581553E0,-7.269082218E-2,-5.801522136E-1
5.885905784E0,-1.579345584E0,-2.345653474E-1,-5.557183027E-1
5.905675368E0,-1.231162667E0,-6.230642200E-1,-5.311316848E-1
5.925446566E0,-7.528692484E-1,-1.203979969E0,-4.523324072E-1
5.945216201E0,-4.162923992E-1,-1.018282413E0,-7.108734846E-1
5.964987399E0,-4.611896724E-2,-3.408527672E-1,-1.062110662E0
5.984757034E0,2.904578745E-1,1.026223376E-1,-1.212989926E0
6.004528232E0,9.686510563E-1,3.536805511E-1,-1.096928954E0
6.024297816E0,1.999761224E0,3.585673273E-1,-7.383615971E-1
6.044069066E0,3.410207510E0,-1.142284349E-1,-2.574721277E-1
6.063838649E0,4.196367741E0,-1.018282413E0,3.826957941E-1
6.083609847E0,4.153608799E0,-1.418998241E0,9.477295280E-1
6.103379482E0,3.669817686E0,-3.035911024E-1,1.404643297E0
6.123150680E0,3.192745924E0,4.776825607E-1,1.500546336E0
6.142920264E0,3.069354773E0,2.076880634E-1,1.222610831E0
6.162691514E0,3.080349922E0,-8.991671801E-1,1.597671032E0
6.182461097E0,2.925805569E0,-1.662726283E0,1.795585513E0
6.202232295E0,2.561129808E0,-2.337712526E0,1.437018156E0
6.222001930E0,2.456064224E0,-2.588770628E0,1.145033240E0
6.241773128E0,2.606332541E0,-2.238755226E0,1.181073189E0
6.261542764E0,2.721782684E0,-2.583273172E0,1.104717255E0
6.281313961E0,2.841508627E0,-3.097759247E0,9.220739603E-1
6.301083545E0,2.383373260E0,-2.761029720E0,6.826218367E-1
6.320854743E0,1.526965380E0,-1.886296391E0,6.814001203E-1
6.340624378E0,7.463026643E-1,-1.262010455E0,6.380299330E-1
6.360395576E0,3.289412558E-1,-6.591041684E-1,7.174401283E-1
6.380165211E0,2.507528067E-1,-2.327328026E-1,9.000834227E-1
6.399936409E0,1.566823274E-1,-4.697415531E-1,9.513946176E-1
6.419705993E0,-1.395785958E-1,-7.159129977E-1,7.937960029E-1
6.439477243E0,-6.080984473E-1,-5.949652195E-1,5.818319917E-1
6.459246826E0,-8.536590338E-1,-2.950392365E-1,4.657710493E-1
6.479018024E0,-6.997255087E-1,-4.703523964E-2,6.080984473E-1
6.498787659E0,-3.106158376E-1,-5.741964281E-2,9.684983492E-1
6.518558857E0,-2.538070381E-1,-1.337755471E-1,1.162747741E0
6.538328493E0,3.344388604E-1,8.057075143E-1,1.076618314E0
6.558099691E0,3.388827801E0,8.191461563E-1,-1.049893737E0
6.577869274E0,-1.314848781E0,1.131289124E0,-9.865183383E-2
6.597640524E0,-1.983115673E0,-1.842926145E0,-1.388303161E0
6.617410107E0,7.971556485E-2,-4.471401870E-1,-1.851325274E0
6.637181357E0,-3.151666403E0,4.414745808E0,6.383354217E-2
6.656950941E0,-4.274403572E0,4.948015690E0,-4.211791754E-1
6.676722191E0,-2.901829958E0,2.054890156E0,2.739650011E-1
6.696491774E0,-3.069813013E0,1.129456639E0,2.071077585E0
6.716263024E0,-3.665999889E0,1.696322799E0,2.379555464E0
6.736032607E0,-3.769232988E0,2.852809429E0,1.653258085E0
6.755803805E0,-3.788169384E0,3.056832314E0,2.293731421E-1
6.775573441E0,-2.992846251E0,2.138576269E0,-1.141520858E0
6.795344639E0,-2.242114782E0,1.290720224E0,-1.550177574E0
6.815114274E0,-2.389939785E0,1.402505279E0,-6.284091473E-1
6.834885472E0,-2.466295719E0,1.390899181E0,-7.177454978E-2
6.854655107E0,-2.365505934E0,1.075702071E0,-2.702999115E-1
6.874426305E0,-2.405822039E0,2.247917950E-1,-4.621059597E-1
6.894195941E0,-2.036870241E0,-5.607577562E-1,-5.758762360E-1
6.913967139E0,-1.872552276E0,-5.961869359E-1,-8.037222624E-1
6.933736774E0,-1.849950910E0,1.478250325E-1,-1.012021184E0
6.953507972E0,-1.141978979E0,1.588202827E-2,-9.368869662E-1
6.973277607E0,-8.090671897E-1,5.442649126E-1,-5.862606764E-1
6.993048805E0,-6.343649030E-1,1.246128440E0,-3.967452943E-1
7.012818441E0,-5.467082933E-2,1.204590797E0,-5.343386531E-1
7.032589639E0,6.760551929E-1,9.095515609E-1,-2.531961799E-1
7.052359274E0,1.732820988E0,1.240019947E-1,4.944808483E-1
7.072130524E0,2.850060701E0,-3.665083647E-2,1.011257648E0
7.091900107E0,3.241613626E0,3.017585576E-1,1.102273822E0
7.111671357E0,3.765109777E0,4.001049399E-1,9.013051391E-1
7.131440941E0,4.162160397E0,8.197570443E-1,1.002094984E0
7.151212191E0,3.641718626E0,1.657228589E0,7.656970620E-1
7.170981774E0,2.905036926E0,8.936695457E-1,1.005759954E0
7.190753024E0,2.832956791E0,-1.018282413E0,1.614163876E0
7.210522607E0,2.923362255E0,-2.054279327E0,1.308740258E0
7.230293857E0,2.817685604E0,-2.233257532E0,7.473716140E-1
7.250063441E0,3.062635422E0,-1.900956631E0,6.905628443E-1
7.269834691E0,3.408375025E0,-2.411624908E0,4.052971601E-1
7.289604326E0,3.124330997E0,-2.093984365E0,-4.734066129E-2
7.309375524E0,2.081614733E0,-1.433658481E0,-7.835643291E-1
7.329145107E0,1.423732281E0,-9.272661209E-1,-8.929060102E-1
7.348916357E0,8.788564801E-1,-1.007897973E0,-7.560762167E-1
7.368685993E0,1.957765520E-1,-1.002400398E0,-7.218687534E-1
7.388457191E0,-1.243074164E-1,-7.757760286E-1,-6.387935281E-1
7.408226826E0,-1.359135211E-1,-2.950392365E-1,-3.057290614E-1
7.427998024E0,-3.741439581E-1,2.144073844E-1,1.133121699E-1
7.447767659E0,-6.429167390E-1,2.626643181E-1,3.478775024E-1
7.467538857E0,-8.408312798E-1,1.233911440E-1,5.335750580E-1
7.487308493E0,-8.933641315E-1,-1.148392856E-1,6.178719997E-1
7.507079691E0,-4.847072959E-1,-8.857285231E-2,3.790307343E-1
7.526849326E0,1.145338640E-1,2.516690791E-1,-7.360709459E-2
7.546620524E0,1.707318127E-1,-5.680879578E-2,-4.523324072E-1
7.566390159E0,3.051182032E-1,-6.401679516E-1,-6.363501549E-1
7.586161357E0,1.083490372E0,-9.584193230E-1,-9.051229358E-1
7.605930993E0,2.202104330E-1,2.462936163E0,-1.126249671E0
7.625702191E0,3.833066523E-1,1.327981949E0,2.275405973E-1
7.645471826E0,-1.646233350E-1,1.206423283E0,4.315635860E-1
7.665243024E0,-6.197045445E-1,-6.884248853E-1,3.393256664E-1
7.685012659E0,-1.441294074E0,1.458703279E0,-3.634541109E-2
7.704783857E0,-3.432656288E0,2.339545012E0,8.338065445E-2
7.724553493E0,-2.294647694E0,5.027272701E-1,-7.482878864E-2
7.744324691E0,-2.586632729E0,8.649597168E-1,5.628957748E-1
7.764094326E0,-3.487021685E0,2.777675152E0,1.215891480E0
7.783865524E0,-3.964093208E0,4.291965485E0,1.396702290E0
7.803635159E0,-3.737468958E0,3.487479687E0,1.011868477E0
7.823406357E0,-2.987348557E0,1.657839417E0,2.696890533E-1
7.843175993E0,-2.155374527E0,8.759549856E-1,-6.516213417E-1
7.862947191E0,-1.833458066E0,9.736905098E-1,-1.040731072E0
7.882716826E0,-2.040535212E0,1.790393353E0,-6.632274389E-1
7.902488024E0,-2.109560966E0,1.855754018E0,-7.971556485E-2
7.922257659E0,-2.011214495E0,8.887827396E-1,5.283828825E-2
7.942028857E0,-2.139492512E0,2.925958335E-1,-1.194206402E-1
7.961798441E0,-2.385053158E0,2.706053257E-1,-3.943018913E-1
7.981569691E0,-1.974563718E0,-3.481829464E-1,-6.552863717E-1
8.001339274E0,-1.065012217E0,-9.376505613E-1,-8.739697337E-1
8.021110524E0,-8.793146014E-1,-7.330167107E-3,-8.861866593E-1
8.040880107E0,-1.068066478E0,1.406781197E0,-4.431696832E-1
8.060651357E0,-7.400414348E-1,1.221694469E0,-3.771981895E-1
8.080420941E0,-5.030327439E-1,8.576295376E-1,-5.874823332E-1
8.100192191E0,-4.547757804E-1,1.103801012E0,-5.923691392E-1
8.119961774E0,-1.792836636E-1,1.631573081E0,-4.181249440E-1
8.139732972E0,6.106945276E-1,1.748855710E0,1.444653720E-1
8.159502607E0,1.446333647E0,1.420219898E0,4.425588250E-1
8.179273805E0,2.270977497E0,8.906152844E-1,6.594096422E-1
8.199043441E0,2.939855099E0,3.109212518E-1,6.820109487E-1
8.218814639E0,3.711966038E0,-1.238187432E0,-1.618745178E-2
8.238584274E0,4.156052113E0,-5.955760479E-1,2.657185495E-2
8.258355472E0,3.651492119E0,8.460234404E-1,2.794626355E-1
8.278125107E0,3.054694414E0,9.303203821E-1,-6.810946763E-2
8.297896305E0,2.917253733E0,-5.186093450E-1,1.078145429E-1
8.317665889E0,3.100507975E0,-1.679829955E0,7.321004272E-1
8.337437139E0,3.409596682E0,-2.012130976E0,1.035080671E0
8.357206722E0,3.570249557E0,-1.578429341E0,1.208561301E0
8.376977920E0,3.335684061E0,-1.797723532E0,1.101052165E0
8.396747555E0,2.759655237E0,-2.170340300E0,7.223268747E-1
8.416518753E0,1.989987612E0,-2.020682812E0,3.573456407E-2
8.436288389E0,1.403574347E0,-1.622410297E0,-5.170822144E-1
8.456059586E0,9.998042583E-1,-1.351194143E0,-7.401941419E-1
8.475829170E0,4.188885093E-1,-1.078756213E0,-9.002361298E-1
8.495600420E0,-1.725643575E-1,-5.589252710E-1,-8.061656952E-1
8.515370003E0,-7.217160463E-1,5.925218388E-2,-4.156815708E-1
8.535141201E0,-1.132205367E0,7.293516397E-1,-5.192201585E-3
8.554910836E0,-1.090056896E0,1.127013206E0,3.258870244E-1
8.574682034E0,-6.771242023E-1,2.644968629E-1,2.702999115E-1
8.594451670E0,1.065928489E-1,-1.721978426E0,2.137965523E-3
8.614222868E0,9.466605186E-1,-2.652909756E0,-1.029277667E-1
8.633992451E0,1.073105931E0,-1.161831498E0,-3.023693897E-2
8.653763649E0,5.642701387E-1,2.846548259E-1,2.599155009E-1
8.673533284E0,4.714213610E-1,-5.943543911E-1,1.676775664E-1
8.693304482E0,1.187945247E0,-1.109298587E0,-4.804313779E-1
8.713074118E0,-4.114056230E-1,8.429691941E-2,-1.330272675E0
8.732845316E0,-5.091412067E-1,3.371876776E-1,-1.665016890E0
8.752614899E0,1.164122105E0,2.230814219E0,-7.982246280E-1
8.772386149E0,-2.320303202E0,1.756185889E0,1.474890709E0
8.792155732E0,-8.646543026E-1,-8.881719112E-1,1.218640283E-1
8.811926930E0,-2.298923731E0,1.428771734E0,7.666133344E-2
8.831696566E0,-3.210918665E0,2.499587059E0,2.702999115E-1
8.851467764E0,-2.721019030E0,1.401894450E0,-2.031067163E-1
8.871237347E0,-2.863346577E0,2.858765125E-1,1.371352077E-1
8.891008597E0,-3.355689526E0,1.074480295E0,8.603783846E-1
8.910778180E0,-3.396616220E0,1.801999450E0,8.744278550E-1
8.930549430E0,-3.348970175E0,1.321873426E0,-1.835595965E-1
8.950319014E0,-2.904273272E0,1.092805743E0,-1.139688253E0
8.970090211E0,-2.196301222E0,3.176405728E-1,-1.300341129E0
8.989859847E0,-1.801083088E0,-4.691306949E-1,-3.967452943E-1
9.009631045E0,-1.817576051E0,-1.771457121E-2,-3.106158376E-1
9.029400628E0,-1.940967202E0,7.104153633E-1,-5.624375939E-1
9.049171878E0,-1.739998460E0,6.389462352E-1,-5.329642296E-1
9.068941461E0,-1.721673012E0,5.027272701E-1,-5.905365944E-1
9.088712659E0,-1.555522561E0,-1.478250325E-1,-6.216897964E-1
9.108482295E0,-1.368603230E0,-2.925958335E-1,-4.639385045E-1
9.128253493E0,-1.293469071E0,6.108472347E-1,-4.089622498E-1
9.148023076E0,-8.475505710E-1,5.167768002E-1,-6.271874309E-1
9.167794326E0,-5.225798488E-1,8.069292307E-1,-8.556442857E-1
9.187563909E0,-1.004843712E-1,1.017060637E0,-8.794673681E-1
9.207335107E0,8.354863524E-1,2.858765125E-1,-5.764871240E-1
9.227104743E0,1.822615504E0,-1.099525094E-1,-3.054236295E-4
9.246875941E0,2.755990028E0,-4.801259339E-1,3.875826001E-1
9.266645576E0,3.197632790E0,-2.101314515E-1,8.744278550E-1
9.286416774E0,3.477400780E0,4.874561131E-1,1.037524104E0
9.306186357E0,3.484120131E0,1.459924877E-1,1.215280652E0
9.325957555E0,3.267269373E0,9.089407325E-1,1.127318621E0
9.345727191E0,2.831735134E0,4.135435820E-1,1.622104883E0
9.365498389E0,2.628933907E0,-1.766570330E0,2.035037756E0
9.385268024E0,2.753546715E0,-3.295062780E0,1.517039180E0
9.405039222E0,2.740718842E0,-3.405015230E0,1.216502309E0
9.424808805E0,2.781645775E0,-2.839370728E0,1.607444525E0
9.444580055E0,2.862888336E0,-3.377527237E0,1.950740695E0
9.464349639E0,3.057748556E0,-4.015862465E0,1.952573299E0
9.484120836E0,2.833567619E0,-4.439790726E0,1.842009902E0
9.503890472E0,1.799403310E0,-3.186331987E0,1.628824234E0
9.523661670E0,1.134190679E0,-2.004800797E0,1.266591787E0
9.543431253E0,8.904625773E-1,-1.681051612E0,9.257390499E-1
9.563202503E0,6.730009913E-1,-1.243074179E0,8.041804433E-1
9.582972086E0,2.593046725E-1,-7.580614686E-1,5.903838873E-1
9.602743284E0,-2.983988822E-1,-6.340594292E-1,3.643703759E-1
9.622512920E0,-9.739959836E-1,-1.106855273E0,2.281514555E-1
9.642284118E0,-1.273311138E0,-1.506349325E0,5.528167635E-2
9.662053753E0,-7.595885396E-1,-9.229902029E-1,-1.322484314E-1
9.681824951E0,8.215895295E-2,2.748812735E-2,-2.031067163E-1
9.701594586E0,4.726430774E-1,-3.329117596E-1,4.184303805E-2
9.721365784E0,7.780666947E-1,-6.859814525E-1,6.203153729E-1
9.741135368E0,1.525743723E0,3.080655336E0,5.977140665E-1
9.760906618E0,3.967452943E-1,1.095249176E0,9.743013978E-2
9.780676201E0,-9.446752667E-1,-1.948602796E0,-7.035433054E-1
9.800447399E0,-8.093725890E-2,-1.728697717E-1,-1.509861708E0
9.820217034E0,-2.148044348E0,4.414134979E0,1.530172378E-1
9.839988284E0,-3.840702057E0,4.037853241E0,4.792096615E-1
9.859757868E0,-2.415595531E0,8.313631415E-1,4.254551232E-1
9.879529066E0,-2.675205469E0,8.692356348E-1,1.895153642E0
9.899298701E0,-3.469917774E0,2.255858898E0,2.390550852E0
9.919069951E0,-3.618964672E0,2.805774212E0,1.346612811E0
9.938839534E0,-3.135173559E0,1.941883445E0,-2.220429778E-1
9.958610732E0,-2.998954535E0,1.343863964E0,-7.634063363E-1
9.978380368E0,-3.085695028E0,1.276670814E0,-6.601731777E-1
9.998151566E0,-2.545706034E0,1.684716702E0,-7.059867382E-1
1.001792120E1,-2.151098728E0,1.983421087E0,-2.043284029E-1
1.003769245E1,-2.297091007E0,2.322441339E0,1.065928489E-1
1.005746203E1,-2.154152870E0,2.172783613E0,-2.770192325E-1
1.007723328E1,-1.690519810E0,8.502993584E-1,-6.736118197E-1
1.009700287E1,-1.477334142E0,1.111742035E-1,-8.672503829E-1
1.011677412E1,-1.725948930E0,2.968717813E-1,-7.780666947E-1
1.013654375E1,-1.787644506E0,5.357130170E-1,-7.285880446E-1
1.015631495E1,-1.296523333E0,6.340594292E-1,-5.838172436E-1
1.017608459E1,-1.066233873E0,7.965448499E-1,-4.028537571E-1
1.019585578E1,-7.394306064E-1,1.319430113E0,-4.871506989E-1
1.021562542E1,-7.482878864E-2,1.623021126E0,-3.790307343E-1
1.023539667E1,5.905365944E-1,1.486191392E0,1.120904684E-1
1.025516631E1,1.636917949E0,9.138274789E-1,7.375980616E-1
1.027493750E1,2.514094591E0,7.024743408E-2,1.113879919E0
1.029470714E1,3.085236788E0,5.864133686E-2,1.004538298E0
1.031447839E1,3.741286755E0,2.773246467E-1,1.099830508E0
1.033424797E1,3.827416182E0,1.960819662E-1,1.099219680E0
1.035401922E1,3.350344419E0,8.869501948E-1,7.779139876E-1
1.037378886E1,3.328354120E0,1.282779276E-1,8.451071978E-1
1.039356006E1,3.564141035E0,-1.572320819E0,1.170688748E0
1.041332969E1,3.661265850E0,-2.150182247E0,5.427377820E-1
1.043310094E1,3.620338917E0,-1.149003744E0,-3.695625812E-2
1.045287058E1,3.456631899E0,-5.271611810E-1,-9.926267713E-2
1.047264177E1,3.273988485E0,-1.791615009E0,-5.685460567E-1
1.049241141E1,3.073630810E0,-1.325538516E0,-1.296065211E0
1.051218266E1,2.553799629E0,-5.467082858E-1,-2.090777397E0
1.053195230E1,1.887976170E0,-9.791881442E-1,-2.261203766E0
1.055172349E1,1.092042208E0,-1.272394896E0,-1.881256819E0
1.057149318E1,1.847812980E-1,-1.186876178E0,-1.452442050E0
1.059126438E1,-5.641174316E-1,-8.338065147E-1,-7.524111271E-1
1.061103401E1,-1.102273822E0,-3.976615667E-1,-1.130067464E-2
1.063080526E1,-1.380209327E0,-3.237490356E-2,4.694361091E-1
1.065057490E1,-1.223832488E0,1.649287529E-2,7.369872332E-1
1.067034610E1,-6.154286265E-1,-8.496885300E-1,7.699729800E-1
1.069011573E1,6.784985662E-1,-1.489856482E0,7.779139876E-1
1.070988698E1,1.043174386E0,-1.118461370E0,6.007682681E-1
1.072965662E1,8.483141065E-1,-3.206948042E-1,-1.737860441E-1
1.074942787E1,1.283237338E0,-3.164188862E-1,-4.676035643E-1
1.076919750E1,1.190388560E0,-1.412889719E0,-1.270409584E0
1.078896875E1,-4.669927359E-1,-7.537854910E-1,-2.655811071E0
1.080873834E1,1.428008199E0,1.319430023E-1,-2.101161957E0
1.082850959E1,1.701209545E-1,3.657295227E0,-2.544178963E-1
1.084827922E1,-2.832193375E0,1.414111376E0,1.293469071E0
1.086805047E1,1.579040140E-1,-2.517301559E0,-1.560714692E-1
1.088782011E1,-2.224400282E0,9.645278454E-1,3.655920923E-1
1.090759136E1,-3.590254784E0,3.092872381E0,9.837695360E-1
1.092736099E1,-3.279333591E0,2.145906448E0,4.126273096E-1
1.094713224E1,-3.019112587E0,1.435490996E-1,5.396835804E-1
1.096690188E1,-3.260397196E0,3.665083647E-2,1.107771516E0
1.098667313E1,-3.541387081E0,1.839872003E0,9.678874612E-1
1.100644276E1,-3.404557228E0,2.172172785E0,-2.012741715E-1
1.102621401E1,-3.022777557E0,1.327981949E0,-1.032179117E0
1.104598365E1,-2.413763046E0,2.327328026E-1,-8.067765236E-1
1.106575490E1,-2.199355602E0,-4.520269856E-2,-3.900259733E-1
1.108552453E1,-2.238449812E0,6.609367132E-1,-4.059080184E-1
1.110529578E1,-2.135216475E0,8.539644480E-1,-4.847072959E-1
1.112506542E1,-1.983115673E0,6.340594292E-1,-4.590517282E-1
1.114483667E1,-1.987391591E0,3.377985358E-1,-4.089622498E-1
1.116460631E1,-1.908592224E0,-2.748812735E-2,-3.203893900E-1
1.118437756E1,-1.781535983E0,1.679829955E-1,-2.324273884E-1
1.120414719E1,-1.617218137E0,5.638120174E-1,-4.114056230E-1
1.122391844E1,-6.789567471E-1,-3.787253052E-2,-8.196043372E-1
1.124368808E1,-1.572931707E-1,5.607577562E-1,-9.869764447E-1
1.126345933E1,7.788302749E-2,1.869192570E-1,-1.123195410E0
1.128322901E1,7.646280527E-1,1.649287529E-2,-9.148964882E-1
1.130300026E1,1.477486849E0,3.738385141E-1,-4.779879749E-1
1.132276990E1,2.492714882E0,4.789042473E-1,-2.049392611E-1
1.134254115E1,3.217179775E0,7.574506104E-2,1.371352077E-1
1.136231078E1,3.501834631E0,-8.307522535E-2,4.077405334E-1
1.138208203E1,3.695473194E0,3.249707520E-1,8.365553021E-1
1.140185172E1,3.601402760E0,6.181774139E-1,1.165802002E0
1.142162297E1,3.133493662E0,6.481089592E-1,1.340504289E0
1.144139261E1,2.830513477E0,-1.179545999E0,2.236006498E0
1.146116386E1,2.869607687E0,-3.055610657E0,2.521883011E0
1.148093349E1,2.626490593E0,-4.339611530E0,2.363673449E0
1.150070474E1,2.897706747E0,-4.881433010E0,2.738122940E0
1.152047443E1,3.558643341E0,-4.828289509E0,2.913435936E0
1.154024568E1,4.035715103E0,-4.963897705E0,2.623894453E0
1.156001532E1,3.459686279E0,-4.949237347E0,2.440640211E0
1.157978657E1,2.640539885E0,-3.706162930E0,1.695406556E0
1.159955620E1,2.501266718E0,-2.934051991E0,1.003927469E0
1.161932750E1,2.139645338E0,-2.597933292E0,7.815790772E-1
1.163909714E1,1.521467805E0,-2.149571419E0,8.506048322E-1
1.165886839E1,6.210789680E-1,-1.736027956E0,7.779139876E-1
1.167863802E1,-3.851391971E-1,-9.229902029E-1,5.451811552E-1
1.169840927E1,-1.184738278E0,-1.905843467E-1,3.124483824E-1
1.171817896E1,-1.749161124E0,4.599680007E-1,1.371352077E-1
1.173795021E1,-2.011825562E0,1.197260618E0,4.123219103E-2
1.175771985E1,-1.271478534E0,2.042673349E0,3.057290614E-1
1.177749110E1,-3.649812341E-1,5.552601814E-1,6.361974478E-1
1.179726078E1,9.051229358E-1,-2.724378705E-1,9.532271624E-1
1.181703203E1,2.735221386E0,4.165520191E0,9.733850956E-1
1.183680167E1,-5.085303187E-1,2.461714447E-1,4.672981426E-2
1.185657292E1,-1.050351858E0,-3.419675589E0,-1.669292808E0
1.187634256E1,1.560714692E-1,6.303943992E-1,-2.078560591E0
1.189611386E1,-2.720408201E0,4.951680660E0,8.857285604E-3
1.191588349E1,-4.076488972E0,3.480760336E0,6.200099736E-2
1.193565474E1,-3.309265137E0,2.304115772E0,8.102889061E-1
1.195542438E1,-3.289107084E0,1.867970943E0,1.871941447E0
1.197519568E1,-3.400892019E0,2.141630411E0,2.138270855E0
1.199496532E1,-3.279333591E0,2.152014971E0,1.531699538E0
1.201473657E1,-3.344083309E0,2.344431877E0,2.654131353E-1
1.203450620E1,-3.690433741E0,2.423231125E0,-4.046863019E-1
1.205427750E1,-3.345304966E0,2.400629759E0,-7.640172243E-1
1.207404714E1,-2.442472696E0,1.829487562E0,-7.615737915E-1
1.209381839E1,-1.989224076E0,1.090362310E0,-5.410579443E-1
1.211358808E1,-2.051530600E0,7.580614686E-1,-7.780666947E-1
1.213335933E1,-2.201798916E0,5.717530251E-1,-8.061656952E-1
1.215312896E1,-2.303199530E0,1.710372418E-2,-6.241331697E-1
1.217290021E1,-1.813910961E0,-1.001178622E0,-4.853181541E-1
1.219266990E1,-1.730224848E0,-1.213142633E0,-6.003101468E-1
1.221244115E1,-1.804748178E0,-2.199050188E-1,-5.103628635E-1
1.223221078E1,-1.316681266E0,2.070772201E-1,-3.283303976E-1
1.225198209E1,-8.768712282E-1,1.047603011E0,-3.943018913E-1
1.227175172E1,-2.605263591E-1,9.028322697E-1,-3.662029207E-1
1.229152297E1,2.916795611E-1,9.083298445E-1,-2.305948436E-1
1.231129266E1,1.151294351E0,1.292552829E0,1.236965731E-1
1.233106391E1,2.386427641E0,1.481915474E0,9.098569751E-1
1.235083360E1,3.060192108E0,2.553341687E-1,1.401589036E0
1.237060485E1,3.322245598E0,-5.210527182E-1,1.137092113E0
1.239037453E1,3.955083370E0,-2.015795931E-2,7.919634581E-1
1.241014578E1,4.120012283E0,5.021164417E-1,5.158604980E-1
1.242991542E1,3.855515242E0,1.035996914E0,1.768402755E-1
1.244968672E1,3.481676579E0,-3.836120665E-1,-5.589252338E-2
1.246945636E1,3.346679449E0,-2.392688751E0,8.460234851E-2
1.248922766E1,3.828027010E0,-1.303548098E0,4.248442650E-1
1.250899730E1,4.304487705E0,-1.348139882E0,2.464768738E-1
1.252876860E1,4.350912094E0,-1.978534222E0,-1.658450365E-1
1.254853823E1,3.716852903E0,-1.794669271E0,-8.544226289E-1
1.256830953E1,2.391925097E0,-9.407047629E-1,-2.129260778E0
1.258807917E1,1.850103617E0,-5.595360994E-1,-2.209281921E0
1.260785047E1,1.292400122E0,-8.942803741E-1,-1.898971438E0
1.262762016E1,3.448232710E-1,-1.018893242E0,-1.685174823E0
1.264739141E1,-5.793886185E-1,-6.963658929E-1,-1.087766290E0
1.266716110E1,-1.536586285E0,-3.206948042E-1,-2.232646793E-1
1.268693235E1,-2.165758848E0,4.330907166E-1,5.470137000E-1
1.270670203E1,-1.819408536E0,9.639169574E-1,1.064401388E0
1.272647328E1,-2.947337925E-1,-5.680879578E-2,9.123004079E-1
1.274624297E1,1.005912781E0,-1.643179178E0,5.256340504E-1
1.276601422E1,1.075549364E0,-2.219818830E0,-3.084778599E-2
1.278578391E1,1.162289619E0,-5.076140761E-1,-3.460449576E-1
1.280555521E1,9.692618847E-1,-5.577035546E-1,-3.191677034E-1
1.282532485E1,1.213600755E0,-1.413500547E0,-6.791094542E-1
1.284509615E1,-8.023478985E-1,-2.809897363E-1,-1.272242069E0
1.286486578E1,5.184566379E-1,6.230642200E-1,-1.823226333E0
1.288463709E1,1.698613524E0,1.982199311E0,-1.624090195E0
1.290440677E1,-1.915922403E0,-3.603998944E-2,1.935469508E0
1.292417802E1,1.078145429E-1,-2.575331926E0,-1.679829881E-2
1.294394771E1,-1.749161124E0,1.565601468E0,3.390202299E-2
1.296371901E1,-3.736247301E0,3.889417171E0,6.087092757E-1
1.298348865E1,-2.737511873E0,1.895459056E0,-7.299624383E-2
1.300325995E1,-2.687422514E0,2.192941606E-1,3.045073450E-1
1.302302964E1,-3.240239382E0,8.674030900E-1,1.234827757E0
1.304280089E1,-3.537721872E0,2.220429897E0,1.251320601E0
1.306257058E1,-3.459533453E0,2.548607588E0,3.503209054E-1
1.308234188E1,-3.046600819E0,1.422663212E0,-7.261446714E-1
1.310211151E1,-2.796764135E0,3.426853120E-1,-1.143353343E0
1.312188282E1,-2.568307400E0,1.429382563E-1,-6.510104537E-1
1.314165250E1,-2.499281645E0,7.574505806E-1,-1.279724985E-1
1.316142380E1,-2.246390820E0,1.326760292E0,-7.116370648E-2
1.318119344E1,-1.986780763E0,9.987352490E-1,-2.168507688E-2
1.320096474E1,-1.932415247E0,1.288887709E-1,-9.437590092E-2
1.322073443E1,-1.730835676E0,-4.074351192E-1,-3.564293683E-1
1.324050573E1,-1.718618751E0,-1.313321590E-1,-5.361711979E-1
1.326027537E1,-1.763210654E0,1.221694518E-3,-5.795413256E-1
1.328004667E1,-1.398534775E0,1.240019947E-1,-6.064186096E-1
1.329981636E1,-6.184828281E-1,-1.178935245E-1,-6.516213417E-1
1.331958766E1,-1.701209545E-1,6.059604883E-1,-6.705575585E-1
1.333935735E1,3.695625812E-2,7.525638342E-1,-6.693359017E-1
1.335912865E1,5.716003180E-1,3.219164908E-1,-7.328640223E-1
1.337889834E1,1.612484097E0,7.867712975E-1,-4.107947946E-1
1.339866959E1,2.693072796E0,2.962609231E-1,-4.245388508E-2
1.341843927E1,3.633166790E0,-1.466033459E-1,5.335750580E-1
1.343821058E1,3.578801394E0,-4.685198367E-1,8.457180262E-1
1.345798026E1,3.176863909E0,-1.661504507E-1,1.174353838E0
1.347775157E1,2.832345963E0,-6.597150117E-2,1.468171358E0
1.349752125E1,2.785310745E0,-3.365768492E-1,1.523758531E0
1.351729256E1,2.970397472E0,-1.259567022E0,1.835901380E0
1.353706224E1,3.041255713E0,-2.188665628E0,1.309961915E0
1.355683355E1,2.715063334E0,-3.272461414E0,6.337540150E-1
1.357660323E1,2.653367758E0,-2.927943707E0,9.666658044E-1
1.359637453E1,2.545858622E0,-2.434837103E0,1.613553047E0
1.361614422E1,2.322899342E0,-2.709107637E0,1.602557778E0
1.363591552E1,2.242878437E0,-2.581440449E0,1.027750492E0
1.365568521E1,1.767639279E0,-2.536237717E0,4.902049303E-1
1.367545651E1,1.167176366E0,-2.282736301E0,3.185568452E-1
1.369522620E1,7.536327839E-1,-2.018850088E0,2.831276953E-1
1.371499750E1,3.845283389E-1,-1.878355265E0,3.106158376E-1
1.373476714E1,7.360709459E-2,-1.363411069E0,3.552076817E-1
1.375453849E1,-2.605263591E-1,-4.019374847E-1,4.407263100E-1
1.377430818E1,-6.557445526E-1,4.709632397E-1,4.407263100E-1
1.379407948E1,-9.202414155E-1,7.183563709E-1,3.454341292E-1
1.381384917E1,-7.669187188E-1,-8.918370306E-2,2.412846684E-2
1.383362047E1,-2.244863659E-1,-1.198482275E0,-5.453338623E-1
1.385339016E1,6.766660213E-1,-9.681929350E-1,-6.736118197E-1
1.387316146E1,9.998042583E-1,5.577035546E-1,2.171562016E-1
1.389293115E1,7.823426127E-1,-1.716480851E-1,1.214058876E0
1.391270245E1,1.065775752E0,-2.644968629E-1,1.891488552E0
1.393247214E1,5.172349215E-1,1.610193372E0,9.196305275E-1
1.395224344E1,9.820896983E-1,-7.269082665E-1,-3.839175105E-1
1.397201318E1,4.726430774E-1,-3.687226772E0,-1.268577099E0
1.399178448E1,4.249969721E-1,-6.988092661E-1,-1.592326045E0
1.401155417E1,-2.025874853E0,4.901591301E0,-2.293731421E-1
1.403132547E1,-3.383788347E0,4.467278481E0,6.148177385E-1
1.405109516E1,-1.670361876E0,4.092676565E-2,7.449282408E-1
1.407086646E1,-1.838955641E0,-7.091936469E-1,1.089446068E0
1.409063620E1,-3.009949923E0,1.550941229E0,1.337450027E0
1.411040750E1,-3.341029167E0,2.921835184E0,6.722373962E-1
1.413017719E1,-2.870065928E0,1.841093659E0,-2.596100792E-2
1.414994849E1,-2.832804203E0,1.512457848E0,-1.585148573E-1
1.416971823E1,-2.818143845E0,1.517955422E0,-2.660239935E-1
1.418948953E1,-2.125442982E0,1.327981949E0,-6.345176101E-1
1.420925922E1,-1.583621502E0,1.096470833E0,-4.981459379E-1
1.422903052E1,-1.757102132E0,1.177713513E0,-2.507528067E-1
1.424880026E1,-1.878049850E0,1.266897202E0,-4.071297050E-1
1.426857157E1,-1.848118424E0,3.854446113E-1,-6.015318632E-1
1.428834125E1,-1.931804419E0,-3.823903799E-1,-6.387935281E-1
1.430811261E1,-2.050308943E0,-6.084038615E-1,-5.758762360E-1
1.432788230E1,-1.936080337E0,-5.204418898E-1,-6.894938350E-1
1.434765360E1,-1.363716483E0,-1.417165697E-1,-7.548545003E-1
1.436742334E1,-8.866447806E-1,2.174616307E-1,-5.416688323E-1
1.438719464E1,-8.603783846E-1,8.081509471E-1,-3.472666740E-1
1.440696433E1,-6.655181050E-1,9.584193230E-1,-3.973561525E-1
1.442673568E1,-2.648022771E-1,5.931326747E-1,-4.944808483E-1
1.444650537E1,8.338065445E-2,6.865923405E-1,-3.216110766E-1
1.446627667E1,7.328640223E-1,6.481089592E-1,1.047603041E-1
1.448604641E1,1.536128163E0,1.319430023E-1,2.800734639E-1
1.450581771E1,2.377875566E0,-2.730487287E-1,4.071297050E-1
1.452558740E1,2.872661829E0,-3.170297146E-1,6.068767309E-1
1.454535875E1,3.188469887E0,7.214106321E-1,5.060869455E-1
1.456512844E1,3.147543192E0,1.237576604E0,5.549547076E-1
1.458489980E1,2.723615170E0,1.214364409E0,5.195255876E-1
1.460466948E1,2.562351465E0,7.983773947E-1,7.040014863E-1
1.462444078E1,2.740718842E0,-7.427902818E-1,9.575030804E-1
1.464421052E1,3.024152040E0,-2.260745764E0,7.278245091E-1
1.466398183E1,3.163425207E0,-2.348096848E0,4.639385045E-1
1.468375157E1,3.188469887E0,-1.195428133E0,5.848862529E-1
1.470352287E1,2.979560137E0,-7.440119386E-1,6.911736727E-1
1.472329261E1,2.559297323E0,-1.148392797E0,5.946598053E-1
1.474306391E1,1.965553761E0,-1.459314108E0,2.489202619E-1
1.476283365E1,1.449998736E0,-1.365243673E0,-1.249182671E-1
1.478260495E1,1.085933685E0,-1.216196895E0,-1.065928489E-1
1.480237469E1,5.917583108E-1,-1.087918997E0,2.046338283E-2
1.482214599E1,-6.200099736E-2,-7.305732965E-1,2.770192325E-1
1.484191573E1,-7.687512636E-1,-1.924168915E-1,4.352286756E-1
1.486168703E1,-1.200620294E0,3.597890437E-1,3.973561525E-1
1.488145677E1,-1.243379593E0,6.297835112E-1,3.411581814E-1
1.490122813E1,-9.782719016E-1,4.379774928E-1,2.293731421E-1
1.492099782E1,-3.717005551E-1,1.081199646E-1,2.079934925E-1
1.494076917E1,3.390202299E-2,-9.345963001E-1,1.435491070E-2
1.496053896E1,3.045073450E-1,-1.865527511E0,-5.250232220E-1
1.498031021E1,7.139277458E-1,-7.061394453E-1,-7.346965671E-1
1.500007995E1,5.538857579E-1,2.382304370E-1,-2.904578745E-1
1.501985125E1,3.313846290E-1,-4.361449480E-1,1.249182671E-1
1.503962099E1,6.827745438E-1,-1.354248405E0,-1.096470803E-1
1.505939235E1,1.244753957E0,1.249793530E0,-2.046338283E-2
1.507916214E1,5.031854510E-1,1.855143070E0,6.704048514E-1
1.509893339E1,-9.489512444E-1,-3.054236174E-1,-5.544965863E-1
1.511870313E1,-4.004103839E-1,-1.950435281E0,-1.767639279E0
1.513847448E1,-1.640430331E0,2.573041439E0,-2.067717910E-1
1.515824417E1,-4.284177303E0,5.269320965E0,8.646543026E-1
1.517801552E1,-2.155985355E0,1.656006932E0,6.600204706E-1
1.519778526E1,-1.036302328E0,-9.058864713E-1,6.783458591E-1
1.521755662E1,-2.502335787E0,5.796940327E-1,9.135220647E-1
1.523732636E1,-3.330644608E0,2.881519318E0,5.244123936E-1
1.525709771E1,-3.079586506E0,2.216764688E0,-1.847812980E-1
1.527686750E1,-2.884115219E0,1.221083641E0,-2.299840003E-1
1.529663875E1,-2.725905895E0,8.014315963E-1,1.527118147E-3
1.531640849E1,-2.006327868E0,4.483618736E-1,-4.346178174E-1
1.533617985E1,-1.284917235E0,2.877090573E-1,-6.125270724E-1
1.535594959E1,-1.355164647E0,5.436540842E-1,-2.269297540E-1
1.537572094E1,-1.836512327E0,1.015838981E0,-7.421794534E-2
1.539549068E1,-2.163926363E0,9.840749502E-1,-1.243074164E-1
1.541526203E1,-2.131551504E0,4.312581718E-1,-3.289412558E-1
1.543503188E1,-1.973952889E0,9.895725548E-2,-4.792096615E-1
1.545480313E1,-1.738165855E0,-5.882459283E-1,-6.497887969E-1
1.547457297E1,-1.544527292E0,-1.563768983E-1,-7.017107606E-1
1.549434427E1,-1.041189194E0,5.833591223E-1,-4.224008918E-1
1.551411401E1,-5.842754245E-1,9.113841057E-1,-2.257080674E-1
1.553388537E1,-3.674246371E-1,1.233300567E0,-2.800734639E-1
1.555365511E1,-9.743013978E-2,9.278770089E-1,-3.985778391E-1
1.557342646E1,1.438545287E-1,4.929537475E-1,-3.423798978E-1
1.559319631E1,7.902836204E-1,5.265503526E-1,7.910472155E-2
1.561296761E1,1.789629698E0,6.047387794E-2,3.515425920E-1
1.563273735E1,2.901982546E0,2.052446753E-1,5.885513425E-1
1.565250870E1,3.236726999E0,1.692046970E-1,6.850652099E-1
1.567227855E1,3.289259672E0,1.808107942E-1,6.221479177E-1
1.569204985E1,3.284983873E0,1.863084137E-1,6.044333577E-1
1.571181959E1,2.893430710E0,5.699204803E-1,8.298360109E-1
1.573159094E1,2.812188148E0,-2.461714447E-1,1.220167398E0
1.575136078E1,3.080960751E0,-1.712815762E0,1.457787037E0
1.577113209E1,3.260550022E0,-2.205158710E0,9.477295280E-1
1.579090193E1,3.292924881E0,-1.830709219E0,6.600204706E-1
1.581067323E1,3.180528879E0,-1.205812454E0,7.223268747E-1
1.583044297E1,2.628323078E0,-1.224748731E0,4.761554301E-1
1.585021438E1,2.067565203E0,-1.192373872E0,-2.275405973E-1
1.586998412E1,1.636307120E0,-9.663603902E-1,-7.505785823E-1
1.588975547E1,1.357760787E0,-8.759549856E-1,-8.678612709E-1
1.590952526E1,8.196043372E-1,-8.741224408E-1,-9.112313986E-1
1.592929662E1,8.154810965E-2,-1.006065488E0,-7.383615971E-1
1.594906641E1,-6.349757314E-1,-5.974085927E-1,-4.010212123E-1
1.596883776E1,-1.303242683E0,1.832541777E-3,-9.498675168E-2
1.598860761E1,-1.732668281E0,3.365768492E-1,1.548497826E-1
1.600837891E1,-1.440683246E0,8.845068216E-1,3.759764731E-1
1.602814875E1,-6.368082762E-1,9.907942414E-1,5.854970813E-1
1.604792006E1,-2.412846684E-2,-9.101624042E-2,5.329642296E-1
1.606768990E1,4.860817194E-1,-1.505738497E0,1.285833418E-1
1.608746120E1,9.283351302E-1,-1.116628766E0,-1.267508119E-1
1.610723105E1,6.803311110E-1,3.603998721E-1,7.605048269E-2
1.612700235E1,2.556395829E-1,-6.988092661E-1,1.322484314E-1
1.614677219E1,1.041341901E0,-5.387672782E-1,-3.264978528E-1
1.616654349E1,4.121691883E-1,1.263842940E0,-1.498255610E0
1.618631334E1,2.422009408E-1,-5.216635466E-1,-1.854990363E0
1.620608464E1,2.299840003E-1,-5.558710173E-2,-7.853968740E-1
1.622585448E1,-1.681967974E0,1.200314879E0,3.695625812E-2
1.624562578E1,-1.966011882E0,1.888739705E0,4.865398407E-1
1.626539558E1,-2.895721436E0,1.974869132E0,7.241594195E-1
1.628516698E1,-2.717964888E0,6.591041684E-1,5.757235289E-1
1.630493672E1,-2.556090355E0,9.907942414E-1,6.997255087E-1
1.632470813E1,-2.717964888E0,1.627907991E0,9.049702287E-1
1.634447787E1,-2.865789890E0,2.712925434E0,9.202414155E-1
1.636424927E1,-3.140060425E0,3.015294790E0,6.252021790E-1
1.638401901E1,-3.184652090E0,2.257080555E0,6.383354217E-2
1.640379042E1,-2.484621286E0,1.866138339E0,-1.230857223E-1
1.642356016E1,-1.626380801E0,1.240019917E0,-1.163664013E-1
1.644333157E1,-1.248877168E0,1.089751482E0,-1.432436854E-1
1.646310141E1,-1.349056125E0,1.176491857E0,7.788302749E-2
1.648287271E1,-1.771151662E0,1.031720996E0,1.188097894E-1
1.650264256E1,-1.864000440E0,1.066539288E0,7.910472155E-2
1.652241386E1,-1.625769973E0,9.791881442E-1,-1.346918195E-1
1.654218370E1,-1.441294074E0,1.820324808E-1,-4.511106908E-1
1.656195500E1,-1.300799251E0,-1.575985998E-1,-7.408050299E-1
1.658172485E1,-1.426633716E0,6.108472589E-3,-7.102626562E-1
1.660149615E1,-1.372268319E0,4.605788291E-1,-4.572191834E-1
1.662126599E1,-7.113316059E-1,8.057075143E-1,-2.831276953E-1
1.664103730E1,-3.735330999E-1,7.458444834E-1,-2.751866877E-1
1.666080714E1,-2.580829561E-1,8.246437907E-1,-6.314633489E-1
1.668057849E1,-1.313321572E-2,6.358919740E-1,-8.745805621E-1
1.670034823E1,3.875826001E-1,1.171604991E0,-8.299887180E-1
1.672011959E1,1.137855768E0,1.967539072E0,-4.816530645E-1
1.673988938E1,2.112767935E0,1.127624035E0,-3.570402265E-1
1.675966078E1,3.202519417E0,7.421793938E-1,-2.379250079E-1
1.677943052E1,3.496947765E0,4.844018817E-1,5.580089688E-1
1.679920193E1,3.110281467E0,-9.339854717E-1,5.048652887E-1
1.681897167E1,3.389438629E0,-4.367557764E-1,5.848862529E-1
1.683874308E1,3.534820318E0,-2.663294077E-1,6.264238358E-1
1.685851282E1,3.124941826E0,-9.236010313E-1,6.203153729E-1
1.687828422E1,2.614884377E0,-1.814216375E0,5.622848868E-1
1.689805407E1,2.372378111E0,-2.550898075E0,3.271087110E-1
1.691782537E1,2.357106924E0,-2.374363184E0,5.262449384E-1
1.693759521E1,2.564795017E0,-1.382347345E0,1.165802002E0
1.695736651E1,2.690629482E0,-1.656006932E0,1.445569992E0
1.697713636E1,2.501266718E0,-2.192941666E0,1.258650780E0
1.699690766E1,1.988765955E0,-2.149571419E0,8.481613994E-1
1.701667750E1,1.197718740E0,-1.670667291E0,4.382829070E-1
1.703644881E1,5.996993184E-1,-1.443432093E0,9.559759498E-2
1.705621865E1,2.654131353E-1,-1.342642307E0,-1.618745178E-2
1.707598995E1,-4.306473210E-2,-1.017671585E0,2.351761982E-2
1.709575980E1,-3.869717419E-1,-5.149442554E-1,9.743013978E-2
1.711553110E1,-7.779139876E-1,-8.063183725E-2,7.543963939E-2
1.713530094E1,-1.199398637E0,-3.292466700E-1,-2.452551723E-1
1.715507224E1,-1.570793748E0,-9.187142849E-1,-5.630484819E-1
1.717484209E1,-1.405864954E0,-1.442210436E0,-4.871506989E-1
1.719461339E1,-1.114796251E-1,-2.373752356E0,-2.055501044E-1
1.721438323E1,1.191610336E0,-1.204590797E0,-1.676775664E-1
1.723415453E1,1.258803487E0,8.771766424E-1,8.826743066E-2
1.725392438E1,1.376697063E0,-9.816315174E-1,4.260659516E-1
1.727369568E1,1.470767498E0,-2.224705696E0,8.402203918E-1
1.729346547E1,-2.812951505E-1,-1.722589284E-1,1.066233873E0
1.731323683E1,-1.747328639E0,8.515210748E-1,-3.118375242E-1
1.733300662E1,1.117697716E0,-1.222916245E0,-2.546469450E0
1.735277797E1,-9.678874612E-1,-2.748812735E-2,-1.550177574E0
1.737254782E1,-1.619661450E0,-4.343124032E-1,-9.894198179E-1
1.739231912E1,-1.537807941E0,8.936695457E-1,-8.898517489E-1
1.741208896E1,-2.327022552E0,2.321219683E0,7.937960029E-1
1.743186026E1,-2.112615347E0,8.118160367E-1,1.152974248E0
1.745163011E1,-2.262272835E0,4.147652984E-1,1.226886749E0
1.747140141E1,-2.500503302E0,4.611896873E-1,1.090667725E0
1.749117125E1,-2.377722979E0,9.822424054E-1,6.050441861E-1
1.751094256E1,-2.056417227E0,1.161220670E0,7.116370648E-2
1.753071240E1,-1.965401053E0,7.024743557E-1,-1.328592747E-1
1.755048370E1,-2.206074953E0,5.314370990E-1,1.481304616E-1
1.757025354E1,-2.204242229E0,4.245388508E-1,3.851391971E-1
1.759002485E1,-2.037481070E0,3.518480062E-1,4.944808483E-1
1.760979459E1,-1.685022116E0,5.937435627E-1,3.527642787E-1
1.762956599E1,-1.478555799E0,3.817795515E-1,2.770192325E-1
1.764933573E1,-1.593395114E0,2.712161839E-1,3.210002482E-1
1.766910714E1,-1.714342833E0,-1.820324808E-1,9.681928903E-2
1.768887688E1,-1.695406556E0,-2.223484069E-1,-2.788517773E-1
1.770864823E1,-1.583010674E0,-2.993151546E-2,-5.489989519E-1
1.772841802E1,-1.421746969E0,3.799470067E-1,-6.632274389E-1
1.774818938E1,-1.022863746E0,4.398100376E-1,-7.463026643E-1
1.776795917E1,-4.150707126E-1,2.040229887E-1,-7.072083950E-1
1.778773052E1,-3.329117596E-2,4.782933891E-1,-4.138490260E-1
1.780750037E1,1.420219839E-1,5.949652195E-1,-2.788517773E-1
1.782727167E1,3.014531136E-1,2.437280566E-1,-2.159345001E-1
1.784704151E1,5.508314967E-1,7.824953198E-1,-2.745758295E-1
1.786681282E1,1.052947998E0,5.851916671E-1,-5.311316848E-1
1.788658256E1,1.777412772E0,-3.781144619E-1,-4.309527278E-1
1.790635396E1,2.459118366E0,-9.272661209E-1,-2.159345001E-1
1.792612370E1,2.542193651E0,-1.035386086E0,-1.068982668E-2
1.794589511E1,2.471335411E0,-6.578825116E-1,1.475196183E-1
1.796566485E1,2.342446566E0,4.306473136E-1,6.728482842E-1
1.798543620E1,2.216001034E0,5.418215394E-1,1.305075169E0
1.800520604E1,1.927070379E0,-5.228852630E-1,1.620883226E0
1.802497735E1,1.784742951E0,-1.193595529E0,1.871941447E0
1.804474719E1,1.749313831E0,-1.254680276E0,1.915311575E0
1.806451849E1,1.372421026E0,-1.134343386E0,1.768097401E0
1.808428834E1,9.527690411E-1,-1.364632726E0,1.838344812E0
1.810405964E1,6.351284385E-1,-1.541167617E0,2.012436390E0
1.812382938E1,5.593833923E-1,-1.962652206E0,2.071688414E0
1.814360078E1,5.819846988E-1,-2.292509794E0,1.735111594E0
1.816337052E1,4.213318825E-1,-2.192941666E0,1.011257648E0
1.818314188E1,-3.939964995E-2,-1.134954214E0,5.958815217E-1
1.820291172E1,-3.442124426E-1,4.801259339E-1,3.460449576E-1
1.822268302E1,-3.161134422E-1,1.053100705E0,1.609582454E-1
1.824245287E1,-1.890572309E-1,4.898995161E-1,3.197785318E-1
1.826222417E1,-3.240544796E-1,3.689517379E-1,5.366293192E-1
1.828199391E1,-8.670976758E-1,1.230857253E0,7.815790772E-1
1.830176532E1,-1.001484036E0,1.929055691E0,8.029587269E-1
1.832153506E1,-6.398624778E-1,1.497797489E0,5.769452453E-1
1.834130641E1,-3.054236295E-4,6.627692580E-1,5.677825212E-1
1.836107625E1,7.811209559E-1,6.963658929E-1,8.933641315E-1
1.838084756E1,7.499676943E-1,3.408527672E-1,1.099219680E0
1.840061730E1,2.458660156E-1,6.768187881E-1,9.868237376E-1
1.842038870E1,-2.684673667E-1,1.307824016E0,6.594096422E-1
1.844015844E1,-6.227588058E-1,1.076923728E0,4.462239146E-1
1.845992980E1,-9.721634388E-1,1.936996698E0,3.735330999E-1
1.847969964E1,-1.919587493E0,2.510582209E0,6.688777357E-2
1.849947094E1,-2.331298590E0,1.957154632E0,-7.621846795E-1
1.851924068E1,-3.137006044E0,3.192440510E0,-2.214168549E0
1.853901203E1,-3.225579023E0,2.595031977E0,-3.298422575E0
1.855878188E1,-1.955627441E0,1.152057886E0,-3.679591179E0
1.857855318E1,-5.042544007E-1,6.261184216E-1,-3.721739531E0
1.859832292E1,5.373928547E-1,1.734806150E-1,-3.978906393E0
1.861809433E1,2.222109556E0,-1.975480080E0,-4.649005890E0
1.863786412E1,3.029038906E0,-1.613247633E0,-4.806604385E0
1.865763542E1,3.081571817E0,-5.118899941E-1,-4.520116806E0
1.867740516E1,2.584952831E0,-2.925958335E-1,-3.889722586E0
1.869717657E1,1.710830450E0,-5.766398311E-1,-3.047975063E0
1.871694630E1,4.488200247E-1,-1.050657257E-1,-2.007702112E0
1.873671766E1,-6.200099736E-2,-6.126797795E-1,-9.350544214E-1
1.875648740E1,1.701209545E-1,-6.774296165E-1,1.145338640E-1
1.877625875E1,8.116632700E-1,2.321219631E-2,9.031376839E-1
1.879602860E1,2.234937429E0,-6.053496599E-1,1.174964666E0
1.881579990E1,3.620338917E0,-1.120293856E0,1.191457629E0
1.883556964E1,4.193924427E0,-5.106683373E-1,1.138924718E0
1.885534099E1,4.548215866E0,-6.438329816E-1,9.281824231E-1
1.887511073E1,4.543940067E0,-1.361578584E0,-7.328640223E-1
1.889488214E1,4.044878006E0,-1.352415800E0,-1.792073131E0
1.891465193E1,3.147543192E0,-1.420219898E0,-1.850103617E0
1.893442323E1,1.929513812E0,-3.225273490E-1,-1.115254402E0
1.895419297E1,1.051115394E0,7.611156702E-1,-7.666133344E-2
1.897396433E1,6.931589246E-1,1.629740477E0,9.208522439E-1
1.899373407E1,8.422056437E-1,1.865527511E0,1.637986898E0
1.901350542E1,1.671125412E0,5.539926529E0,1.619050622E0
1.903327526E1,3.785878658E0,2.665279388E0,1.704569221E0
1.905304657E1,5.622085571E0,3.353551328E-1,1.945853949E0
1.907281630E1,5.862301350E0,-2.376195788E-1,1.915922403E0
1.909258766E1,4.653892517E0,5.625903010E-1,1.865222096E0
1.911235740E1,2.985057831E0,2.345042706E0,1.986169815E0
1.913212875E1,1.810398579E0,3.849101305E0,2.165148020E0
1.915189849E1,1.718771458E0,4.025636196E0,2.414373875E0
1.917166985E1,2.470724344E0,2.868691444E0,2.603736401E0
1.919143959E1,3.456021070E0,1.429993391E0,2.597017050E0
1.921121094E1,3.797484636E0,1.170383334E0,2.281819820E0
1.923098068E1,3.634999275E0,1.211920977E0,1.944632292E0
1.925075203E1,3.448080063E0,1.473974466E0,1.478555799E0
1.927052177E1,3.399212360E0,1.296217918E0,9.092461467E-1
1.929029318E1,3.671650171E0,8.863393664E-1,5.335750580E-1
1.931006297E1,3.738232613E0,1.087308154E-1,1.774511337E-1
1.932983427E1,3.578801394E0,-8.008207679E-1,-1.982199401E-1
1.934960407E1,3.109059811E0,-9.822424054E-1,-2.110477239E-1
1.936937537E1,2.349165916E0,-6.200099587E-1,-5.711421743E-2
1.938914516E1,1.999150395E0,-4.086568058E-1,2.556395829E-1
1.940891641E1,2.132315159E0,-9.016105533E-1,3.796415627E-1
1.942868625E1,2.323510170E0,-1.105633497E0,2.159345001E-1
1.944845750E1,2.382762432E0,-8.716790676E-1,1.921114624E-1
1.946822735E1,2.492714882E0,-4.123218954E-1,2.910687327E-1
1.948799860E1,2.465837717E0,1.459924877E-1,2.709107697E-1
1.950776834E1,2.047407389E0,9.107732773E-1,5.066977739E-1
1.952753969E1,1.453663707E0,1.099525094E0,8.066238165E-1
1.954730943E1,1.069440842E0,4.752391577E-1,8.377770185E-1
1.956708078E1,6.265766025E-1,-3.164188862E-1,6.154286265E-1
1.958685052E1,-1.517955512E-1,-9.480349422E-1,6.872031838E-2
1.960662188E1,-6.960604787E-1,-1.277892470E0,-3.582619131E-1
1.962639162E1,-6.343649030E-1,-1.202758312E0,-7.096518278E-1
1.964616297E1,-3.026748300E-1,-7.977665067E-1,-1.040120125E0
1.966593276E1,-3.573456407E-2,-5.540384650E-1,-8.843541145E-1
1.968570401E1,2.513636351E-1,-6.713211536E-1,-5.398362875E-1
1.970547375E1,3.405473530E-1,-6.267293096E-1,-4.834856093E-1
1.972524511E1,1.130067464E-2,-5.754181147E-1,-5.862606764E-1
1.974501485E1,-3.894151151E-1,-5.430431962E-1,-6.998782754E-1
1.976478620E1,-3.771981895E-1,-1.814216375E-1,-7.432484031E-1
1.978455594E1,1.047603041E-1,-1.362189353E-1,4.795150831E-2
1.980432730E1,4.581354558E-3,-1.087308154E-1,5.073086619E-1
1.982409709E1,-7.131641507E-1,-6.126797795E-1,3.686463237E-1
1.984386834E1,-9.923213720E-1,-5.125008225E-1,2.092151791E-1
1.986363808E1,-6.337540150E-1,-1.435490996E-1,2.018850148E-1
1.988340943E1,-1.047603041E-1,2.443388999E-1,1.774511337E-1
1.990317917E1,4.427115619E-1,5.522059202E-1,2.159345001E-1
1.992295052E1,7.444701195E-1,7.110261917E-1,4.621059597E-1
1.994272032E1,6.051968932E-1,2.987042964E-1,6.899519563E-1
1.996249157E1,2.012741715E-1,-1.404948682E-1,4.333961308E-1
1.998226130E1,-4.123219103E-2,-1.753131598E-1,2.629697323E-1
2.000203266E1,1.554606259E-1,1.001789495E-1,2.519744933E-1
2.002180240E1,5.227325559E-1,3.994941115E-1,1.994416267E-1
2.004157375E1,7.182036638E-1,5.925218463E-1,1.401894391E-1
2.006134349E1,6.045860648E-1,5.204418898E-1,4.123219103E-2
2.008111485E1,3.680354655E-1,3.762819171E-1,-7.055285573E-2
2.010088453E1,1.713426560E-1,2.571666837E-1,1.801999472E-2
2.012065589E1,1.444653720E-1,1.374406368E-1,2.360924631E-1
2.014042563E1,1.902789176E-1,4.520269856E-2,1.426328421E-1
2.016019698E1,2.452551723E-1,9.284878522E-2,-1.243074164E-1
2.017996672E1,3.301629424E-1,2.089097649E-1,-3.417690396E-1
2.019973808E1,4.109475017E-1,4.037700295E-1,-4.419479966E-1
2.021950787E1,4.378247857E-1,5.375455618E-1,-3.680354655E-1
2.023927912E1,1.090362370E-1,2.956500649E-1,-2.892361879E-1
2.025904886E1,-3.399364948E-1,-4.037700295E-1,-4.572191834E-1
2.027882021E1,-3.845283389E-1,-6.835380793E-1,-5.477772951E-1
2.029858995E1,-1.267508119E-1,-5.375455618E-1,-5.380037427E-1
